"subj_id","block_ix","trial_ix","cue","question","question_id","mask_type","mask_c","feat_type","feat_c","truth_coded","truth_normed","truth","truth_c","imagery_mean","imagery_z","facts_mean","facts_z","diff_mean","diff_z","prop_visual","senses_mean","response","rt","is_correct","is_error"
"MWPF101",0,0,"apple","Does it have seeds?","apple:visual:yes:3","mask",0.5,"visual",0.5,"yes","yes","yes",0.5,1,-0.664262733764561,1.5,0.734460367031411,-1.66666666666667,-0.450024870735702,0.235294117647059,2,"yes",817.914534709,1,0
"MWPF101",0,1,"alligator","Is it long?","alligator:visual:yes:2","nomask",-0.5,"visual",0.5,"yes","yes","yes",0.5,2.25,1.28039274854583,1.5,0.734460367031411,-1.75,-0.637824614211998,0.571428571428571,3.33333333333333,"yes",974.268924503,1,0
"MWPF101",0,2,"giraffe","Does it live in zoos?","giraffe:nonvisual:yes:3","nomask",-0.5,"nonvisual",-0.5,"yes","yes","yes",0.5,1.42857142857143,0.00247628874185779,0.571428571428571,-0.685707041291378,-1.85714285714286,-0.879281427252951,0.5,1.5,"yes",948.636701971,1,0
"MWPF101",0,3,"chair","Is it found at tables?","chair:nonvisual:yes:5","nomask",-0.5,"nonvisual",-0.5,"yes","yes","yes",0.5,2.16666666666667,1.15074904972513,0.333333333333333,-1.04985253060491,-1.66666666666667,-0.450024870735702,0.466666666666667,3,"yes",1640.65081824,1,0
"MWPF101",0,4,"mouse","Is it an animal?","mouse:nonvisual:yes:2","mask",0.5,"nonvisual",-0.5,"yes","yes","yes",0.5,0.833333333333333,-0.923550131405946,0.666666666666667,-0.540048845565964,-1,1.05237307707467,0.470588235294118,2,"yes",582.540417614,1,0
"MWPF101",0,5,"chair","Does it have legs?","chair:visual:yes:1","nomask",-0.5,"visual",0.5,"yes","yes","yes",0.5,1.7,0.424744336329256,0.8,-0.336127371550384,-1.5,-0.0744253837831102,0.466666666666667,1.5,"yes",1154.190648,1,0
"MWPF101",0,6,"pig","Is it pink?","pig:visual:yes:1","nomask",-0.5,"visual",0.5,"yes","yes","yes",0.5,1.71428571428571,0.446968970412804,0.571428571428571,-0.685707041291378,-1.28571428571429,0.408488242298794,0.578947368421053,1,"yes",624.450319854,1,0
"MWPF101",0,7,"dog","Is it a pet?","dog:nonvisual:yes:3","nomask",-0.5,"nonvisual",-0.5,"yes","yes","yes",0.5,0.666666666666667,-1.18283752904733,0,-1.55965621564386,-1.83333333333333,-0.825624357688294,0.642857142857143,1,"yes",738.814584329,1,0
"MWPF101",0,8,"tiger","Is it an animal?","tiger:nonvisual:yes:2","mask",0.5,"nonvisual",-0.5,"yes","yes","yes",0.5,1,-0.664262733764561,1,-0.0302451605270142,-2,-1.20122384464089,0.473684210526316,2,"yes",948.466370581,1,0
"MWPF101",0,9,"rabbit","Does it have a tail?","rabbit:visual:yes:4","nomask",-0.5,"visual",0.5,"yes","yes","yes",0.5,1.625,0.308065007390633,0.875,-0.22142154241662,-1.625,-0.356124998997554,0.666666666666667,1.5,"yes",1388.76101357,1,0
"MWPF101",0,10,"mouse","Does it have fur?","mouse:visual:yes:3","mask",0.5,"visual",0.5,"yes","yes","yes",0.5,2.57142857142857,1.78044701542564,2.14285714285714,1.71765318817796,-1.57142857142857,-0.235396592477078,0.470588235294118,1,"yes",773.29757897,1,0
"MWPF101",0,11,"alligator","Is it green?","alligator:visual:yes:1","nomask",-0.5,"visual",0.5,"yes","","yes",0.5,1,-0.664262733764561,0.75,-0.412597924306227,-1.5,-0.0744253837831102,0.571428571428571,2,"yes",965.198774531,1,0
"MWPF101",0,12,"camel","Does it live in the desert?","camel:nonvisual:yes:1","nomask",-0.5,"nonvisual",-0.5,"yes","yes","yes",0.5,1.375,-0.0808660890714446,1.375,0.543283985141805,-1.625,-0.356124998997554,0.461538461538462,2.25,"yes",823.100899288,1,0
"MWPF101",0,13,"strawberry","Is it furniture?","strawberry:nonvisual:no:3","mask",0.5,"nonvisual",-0.5,"no","no","no",-0.5,0.4,-1.59769736527355,0.4,-0.947891793597124,-1.8,-0.750504460297776,0.125,1.5,"no",865.486436989,1,0
"MWPF101",0,14,"dog","Does it have hair?","dog:visual:yes:4","mask",0.5,"visual",0.5,"yes","yes","yes",0.5,2,0.89146165208375,1,-0.0302451605270142,-1.8,-0.750504460297776,0.642857142857143,2.4,"yes",1030.58248037,1,0
"MWPF101",0,15,"donkey","Is it an animal?","donkey:nonvisual:yes:1","mask",0.5,"nonvisual",-0.5,"yes","yes","yes",0.5,2,0.89146165208375,2.33333333333333,2.00896957962879,-1.66666666666667,-0.450024870735702,0.5,1,"yes",1552.97118129,1,0
"MWPF101",0,16,"swan","Is it a bird?","swan:nonvisual:yes:2","nomask",-0.5,"nonvisual",-0.5,"yes","yes","yes",0.5,1.75,0.502530555621672,1,-0.0302451605270142,-1.25,0.488973846645778,0.533333333333333,1.6,"yes",999.128572119,1,0
"MWPF101",0,17,"raccoon","Is it nocturnal?","raccoon:nonvisual:yes:3","nomask",-0.5,"nonvisual",-0.5,"yes","yes","yes",0.5,1.6,0.269171897744426,2,1.49916589458984,-0.8,1.50309246141778,0.545454545454545,NA,"timeout",NA,NA,NA
"MWPF101",0,18,"strawberry","Does it have green leaves?","strawberry:visual:yes:3","nomask",-0.5,"visual",0.5,"yes","yes","yes",0.5,2,0.89146165208375,0,-1.55965621564386,-1.66666666666667,-0.450024870735702,0.125,2,"yes",792.47887776,1,0
"MWPF101",0,19,"raccoon","Does it have a tail?","raccoon:visual:yes:2","nomask",-0.5,"visual",0.5,"yes","yes","yes",0.5,1.2,-0.353117856594899,0.4,-0.947891793597124,-1.8,-0.750504460297776,0.545454545454545,1.33333333333333,"yes",600.502401765,1,0
"MWPF101",0,20,"camel","Is it a bird?","camel:nonvisual:no:1","nomask",-0.5,"nonvisual",-0.5,"no","no","no",-0.5,1,-0.664262733764561,1,-0.0302451605270142,-1.5,-0.0744253837831102,0.461538461538462,1,"no",770.366965386,1,0
"MWPF101",0,21,"table","Is it found in kitchens?","table:nonvisual:yes:2","mask",0.5,"nonvisual",-0.5,"yes","yes","yes",0.5,1.5,0.113599459159594,0.25,-1.17730345186465,-1.5,-0.0744253837831102,0.6,1.66666666666667,"yes",909.373400791,1,0
"MWPF101",0,22,"chair","Does it have a seat?","chair:visual:yes:4","nomask",-0.5,"visual",0.5,"yes","yes","yes",0.5,1.55555555555556,0.200028591706723,0.666666666666667,-0.540048845565964,-1.88888888888889,-0.950824186672492,0.466666666666667,1.88888888888889,"yes",915.942187654,1,0
"MWPF101",0,23,"apple","Is it round?","apple:visual:yes:4","nomask",-0.5,"visual",0.5,"yes","yes","yes",0.5,3,2.44718603793206,1.5,0.734460367031411,-1.5,-0.0744253837831102,0.235294117647059,1.2,"yes",687.084769597,1,0
"MWPF101",0,24,"bottle","Does it have a neck?","bottle:visual:yes:4","nomask",-0.5,"visual",0.5,"yes","yes","yes",0.5,2.2,1.20260652925341,1.4,0.581519261519726,-1.4,0.150934308388445,0.357142857142857,1.88888888888889,"yes",670.980843017,1,0
"MWPF101",0,25,"chicken","Does it eat grain?","chicken:nonvisual:yes:3","nomask",-0.5,"nonvisual",-0.5,"yes","yes","yes",0.5,1.25,-0.275331637302484,0.75,-0.412597924306227,-1,1.05237307707467,0.555555555555556,3,"no",NA,0,1
"MWPF101",0,26,"mouse","Is it used in experiments?","mouse:nonvisual:yes:4","mask",0.5,"nonvisual",-0.5,"yes","yes","yes",0.5,0.666666666666667,-1.18283752904733,2.66666666666667,2.51877326466773,-1.33333333333333,0.301174103169482,0.470588235294118,2.5,"yes",994.042201142,1,0
"MWPF101",0,27,"donkey","Does it have a tail?","donkey:visual:yes:3","mask",0.5,"visual",0.5,"yes","","yes",0.5,2.66666666666667,1.92861124264929,2,1.49916589458984,-1,1.05237307707467,0.5,1.75,"yes",791.972445848,1,0
"MWPF101",0,28,"strawberry","Is it red?","strawberry:visual:yes:1","mask",0.5,"visual",0.5,"yes","yes","yes",0.5,1.66666666666667,0.37288685680098,0,-1.55965621564386,-1.33333333333333,0.301174103169482,0.125,1,"yes",713.992196717,1,0
"MWPF101",0,29,"rabbit","Does it hop?","rabbit:nonvisual:yes:1","nomask",-0.5,"nonvisual",-0.5,"yes","yes","yes",0.5,2,0.89146165208375,1,-0.0302451605270142,-1.8,-0.750504460297776,0.666666666666667,1.66666666666667,"yes",889.819882112,1,0
"MWPF101",0,30,"table","Does it have a nose?","table:visual:no:2","nomask",-0.5,"visual",0.5,"no","no","no",-0.5,1.25,-0.275331637302484,0,-1.55965621564386,-2,-1.20122384464089,0.6,1.5,"no",653.378912248,1,0
"MWPF101",0,31,"bottle","Does it have armrests?","bottle:visual:no:3","nomask",-0.5,"visual",0.5,"no","no","no",-0.5,2,0.89146165208375,1.8,1.19328368356647,-0.8,1.50309246141778,0.357142857142857,2.28571428571429,"no",1019.87136935,1,0
"MWPF101",0,32,"donkey","Does it make noises?","donkey:nonvisual:yes:5","mask",0.5,"nonvisual",-0.5,"yes","yes","yes",0.5,1.4,-0.041972979425237,1,-0.0302451605270142,-1.6,-0.299785075954666,0.5,1.33333333333333,"yes",918.658746232,1,0
"MWPF101",0,33,"chicken","Does it have feathers?","chicken:visual:yes:1","nomask",-0.5,"visual",0.5,"yes","yes","yes",0.5,2.5,1.66932384500791,2.16666666666667,1.75406773710931,-1,1.05237307707467,0.555555555555556,1,"yes",643.354069674,1,0
"MWPF101",0,34,"swan","Does it have a hump?","swan:visual:no:1","nomask",-0.5,"visual",0.5,"no","no","no",-0.5,1.8,0.580316774914088,0.6,-0.642009582573754,-1.6,-0.299785075954666,0.533333333333333,2.5,"no",705.383994791,1,0
"MWPF101",0,35,"table","Is it round?","table:visual:yes:2","mask",0.5,"visual",0.5,"yes","","yes",0.5,1.83333333333333,0.632174254442365,0.833333333333333,-0.285147003046489,-1.66666666666667,-0.450024870735702,0.6,1,"yes",557.601307286,1,0
"MWPF101",0,36,"giraffe","Does it have long legs?","giraffe:visual:yes:3","nomask",-0.5,"visual",0.5,"yes","yes","yes",0.5,2,0.89146165208375,1.75,1.11681313081062,-1.75,-0.637824614211998,0.5,1.4,"yes",963.234639959,1,0
"MWPF101",0,37,"rabbit","Does it have feet?","rabbit:visual:yes:2","nomask",-0.5,"visual",0.5,"yes","yes","yes",0.5,1.66666666666667,0.37288685680098,0.5,-0.794950688085439,-1.66666666666667,-0.450024870735702,0.666666666666667,2.8,"yes",952.90297264,1,0
"MWPF101",0,38,"grasshopper","Is it found in summer?","grasshopper:nonvisual:yes:3","mask",0.5,"nonvisual",-0.5,"yes","yes","yes",0.5,2,0.89146165208375,2.25,1.88151865836905,-1.25,0.488973846645778,0.666666666666667,2.2,"yes",960.32455744,1,0
"MWPF101",0,39,"apple","Is it nutritious?","apple:nonvisual:yes:4","mask",0.5,"nonvisual",-0.5,"yes","yes","yes",0.5,0.625,-1.24765937845768,2.25,1.88151865836905,-1.75,-0.637824614211998,0.235294117647059,2.9,"no",NA,0,1
"MWPF101",0,40,"grasshopper","Does it have antennae?","grasshopper:visual:yes:4","mask",0.5,"visual",0.5,"yes","yes","yes",0.5,2.11111111111111,1.06431991717801,1.22222222222222,0.309623962832286,-1,1.05237307707467,0.666666666666667,2.5,"yes",1196.6571692,1,0
"MWPF101",0,41,"tiger","Does it have warts?","tiger:visual:no:5","nomask",-0.5,"visual",0.5,"no","no","no",-0.5,1.6,0.269171897744426,2.2,1.80504810561321,-1.2,0.601653692731556,0.473684210526316,4.25,"no",770.714472048,1,0
"MWPF101",0,42,"camel","Does it live in a coop?","camel:nonvisual:no:5","nomask",-0.5,"nonvisual",-0.5,"no","no","no",-0.5,1.6,0.269171897744426,1.6,0.887401472543096,-1,1.05237307707467,0.461538461538462,2.25,"yes",NA,0,1
"MWPF101",0,43,"tiger","Does it have large teeth?","tiger:visual:yes:5","mask",0.5,"visual",0.5,"yes","yes","yes",0.5,2,0.89146165208375,1.5,0.734460367031411,-1.5,-0.0744253837831102,0.473684210526316,2.4,"yes",1911.82609764,1,0
"MWPF101",0,44,"table","Is it flat?","table:visual:yes:4","nomask",-0.5,"visual",0.5,"yes","yes","yes",0.5,2.14285714285714,1.11370799291922,1.71428571428571,1.06219130741359,-1.28571428571429,0.408488242298794,0.6,1,"yes",858.169788553,1,0
"MWPF101",0,45,"bottle","Is it juicy?","bottle:nonvisual:no:2","nomask",-0.5,"nonvisual",-0.5,"no","no","no",-0.5,1.25,-0.275331637302484,0.25,-1.17730345186465,-1.75,-0.637824614211998,0.357142857142857,3.2,"no",857.820761099,1,0
"MWPF101",0,46,"raccoon","Does it have seeds?","raccoon:visual:no:2","nomask",-0.5,"visual",0.5,"no","no","no",-0.5,1.2,-0.353117856594899,0.8,-0.336127371550384,-1.6,-0.299785075954666,0.545454545454545,2.71428571428571,"no",1119.48713503,1,0
"MWPF101",0,47,"donkey","Does it have four legs?","donkey:visual:yes:2","mask",0.5,"visual",0.5,"yes","yes","yes",0.5,2,0.89146165208375,0.25,-1.17730345186465,-2,-1.20122384464089,0.5,5,"yes",944.516049582,1,0
"MWPF101",0,48,"rabbit","Is it flat?","rabbit:visual:no:4","mask",0.5,"visual",0.5,"no","no","no",-0.5,0.666666666666667,-1.18283752904733,0.5,-0.794950688085439,-1.66666666666667,-0.450024870735702,0.666666666666667,1.75,"no",1081.49637701,1,0
"MWPF101",0,49,"alligator","Is it a reptile?","alligator:nonvisual:yes:2","mask",0.5,"nonvisual",-0.5,"yes","yes","yes",0.5,1.57142857142857,0.224722629577331,2.42857142857143,2.1546277753542,-1.71428571428571,-0.557339009865014,0.571428571428571,1,"yes",828.675452445,1,0
"MWPF101",0,50,"camel","Does it spit?","camel:nonvisual:yes:5","mask",0.5,"nonvisual",-0.5,"yes","yes","yes",0.5,1.83333333333333,0.632174254442365,2.5,2.26387142214826,-1.5,-0.0744253837831102,0.461538461538462,2.33333333333333,"yes",1133.63453106,1,0
"MWPF101",0,51,"grasshopper","Is it hunted by people?","grasshopper:nonvisual:no:2","nomask",-0.5,"nonvisual",-0.5,"no","no","no",-0.5,0.25,-1.83105602315079,1.75,1.11681313081062,-1,1.05237307707467,0.666666666666667,3.2,"no",871.727107733,1,0
"MWPF101",0,52,"bottle","Does it fly?","bottle:nonvisual:no:4","nomask",-0.5,"nonvisual",-0.5,"no","no","no",-0.5,0.4,-1.59769736527355,0.8,-0.336127371550384,-2,-1.20122384464089,0.357142857142857,1.6,"no",771.772199951,1,0
"MWPF101",0,53,"camel","Does it have seeds?","camel:visual:no:2","nomask",-0.5,"visual",0.5,"no","no","no",-0.5,1.16666666666667,-0.404975336123176,1.83333333333333,1.24426405207036,-1.33333333333333,0.301174103169482,0.461538461538462,1.66666666666667,"no",936.042820103,1,0
"MWPF101",0,54,"mouse","Is it grey?","mouse:visual:yes:2","nomask",-0.5,"visual",0.5,"yes","yes","yes",0.5,2,0.89146165208375,1.75,1.11681313081062,-1.375,0.207274231431334,0.470588235294118,1.6,"yes",1048.97257435,1,0
"MWPF101",0,55,"chicken","Is it comfortable?","chicken:nonvisual:no:5","nomask",-0.5,"nonvisual",-0.5,"no","","no",-0.5,1.4,-0.041972979425237,0.6,-0.642009582573754,-0.6,1.95381184576089,0.555555555555556,4,"no",828.757576528,1,0
"MWPF101",0,56,"pig","Does it have a snout?","pig:visual:yes:3","mask",0.5,"visual",0.5,"yes","yes","yes",0.5,2.75,2.05825494146998,1.25,0.352107603252198,-1.75,-0.637824614211998,0.578947368421053,1.4,"yes",1180.13463786,1,0
"MWPF101",0,57,"bottle","Is it used for holding things?","bottle:nonvisual:yes:1","nomask",-0.5,"nonvisual",-0.5,"yes","yes","yes",0.5,2.66666666666667,1.92861124264929,1.22222222222222,0.309623962832286,-1.22222222222222,0.551573761137876,0.357142857142857,2.75,"no",NA,0,1
"MWPF101",0,58,"table","Is it a mammal?","table:nonvisual:no:2","mask",0.5,"nonvisual",-0.5,"no","no","no",-0.5,1.33333333333333,-0.145687938481791,1.33333333333333,0.479558524511936,-1,1.05237307707467,0.6,2.5,"no",1361.96878826,1,0
"MWPF101",0,59,"raccoon","Is it furry?","raccoon:nonvisual:yes:2","nomask",-0.5,"nonvisual",-0.5,"yes","yes","yes",0.5,1.8,0.580316774914088,1.6,0.887401472543096,-1.6,-0.299785075954666,0.545454545454545,1.57142857142857,"yes",1021.7286665,1,0
"MWPF101",0,60,"rabbit","Does it roar?","rabbit:nonvisual:no:3","mask",0.5,"nonvisual",-0.5,"no","no","no",-0.5,1.16666666666667,-0.404975336123176,0.833333333333333,-0.285147003046489,-1.5,-0.0744253837831102,0.666666666666667,2,"no",894.548480981,1,0
"MWPF101",0,61,"dog","Does it bark?","dog:nonvisual:yes:1","nomask",-0.5,"nonvisual",-0.5,"yes","yes","yes",0.5,1.41666666666667,-0.0160442396610982,1.33333333333333,0.479558524511936,-1.33333333333333,0.301174103169482,0.642857142857143,1,"yes",749.881946598,1,0
"MWPF101",0,62,"giraffe","Is it tall?","giraffe:visual:yes:2","mask",0.5,"visual",0.5,"yes","yes","yes",0.5,2,0.89146165208375,1,-0.0302451605270142,-2,-1.20122384464089,0.5,2,"yes",803.849262767,1,0
"MWPF101",0,63,"alligator","Is it small?","alligator:visual:no:4","mask",0.5,"visual",0.5,"no","no","no",-0.5,1.375,-0.0808660890714446,0.625,-0.603774306195833,-1.375,0.207274231431334,0.571428571428571,2.14285714285714,"no",1216.40763362,1,0
"MWPF101",0,64,"apple","Is it a fruit?","apple:nonvisual:yes:1","mask",0.5,"nonvisual",-0.5,"yes","yes","yes",0.5,1.14285714285714,-0.442016392929088,1,-0.0302451605270142,-1.85714285714286,-0.879281427252951,0.235294117647059,3.6,"yes",733.003544214,1,0
"MWPF101",0,65,"chicken","Does it have wings?","chicken:visual:yes:2","nomask",-0.5,"visual",0.5,"yes","yes","yes",0.5,1.25,-0.275331637302484,0,-1.55965621564386,-1.75,-0.637824614211998,0.555555555555556,1.5,"yes",1093.24126312,1,0
"MWPF101",0,66,"pig","Does it have a tail?","pig:visual:yes:2","mask",0.5,"visual",0.5,"yes","yes","yes",0.5,2.66666666666667,1.92861124264929,0.333333333333333,-1.04985253060491,-1.16666666666667,0.676773590122074,0.578947368421053,1.42857142857143,"no",NA,0,1
"MWPF101",0,67,"alligator","Does it have jaws?","alligator:visual:yes:5","mask",0.5,"visual",0.5,"yes","yes","yes",0.5,1.66666666666667,0.37288685680098,1.33333333333333,0.479558524511936,-1.33333333333333,0.301174103169482,0.571428571428571,2.66666666666667,"yes",1965.33830947,1,0
"MWPF101",0,68,"tiger","Does it have stripes?","tiger:visual:yes:1","nomask",-0.5,"visual",0.5,"yes","yes","yes",0.5,1,-0.664262733764561,0.75,-0.412597924306227,-1.75,-0.637824614211998,0.473684210526316,2.75,"yes",808.711313293,1,0
"MWPF101",0,69,"chicken","Is it eaten by frying?","chicken:nonvisual:yes:4","nomask",-0.5,"nonvisual",-0.5,"yes","","yes",0.5,2,0.89146165208375,1.5,0.734460367031411,-1,1.05237307707467,0.555555555555556,2,"yes",1564.8985653,1,0
"MWPF101",1,70,"donkey","Does it lay eggs?","donkey:nonvisual:no:1","nomask",-0.5,"nonvisual",-0.5,"no","no","no",-0.5,0,-2.21998711961287,0.666666666666667,-0.540048845565964,-2,-1.20122384464089,0.5,2.7,"no",944.209605048,1,0
"MWPF101",1,71,"apple","Does it grow on trees?","apple:nonvisual:yes:2","nomask",-0.5,"nonvisual",-0.5,"yes","yes","yes",0.5,2,0.89146165208375,0.833333333333333,-0.285147003046489,-1.83333333333333,-0.825624357688294,0.235294117647059,2.2,"yes",964.902215288,1,0
"MWPF101",1,72,"dog","Does it have a tail?","dog:visual:yes:3","nomask",-0.5,"visual",0.5,"yes","yes","yes",0.5,2,0.89146165208375,1.28571428571429,0.406729426649229,-1.42857142857143,0.0865458249108578,0.642857142857143,1.14285714285714,"yes",1128.20559618,1,0
"MWPF101",1,73,"strawberry","Is it used for making jam?","strawberry:nonvisual:yes:3","nomask",-0.5,"nonvisual",-0.5,"yes","yes","yes",0.5,2.42857142857143,1.55820067459017,2,1.49916589458984,-1.71428571428571,-0.557339009865014,0.125,2.28571428571429,"yes",1004.73544258,1,0
"MWPF101",1,74,"mouse","Is it large?","mouse:visual:no:2","nomask",-0.5,"visual",0.5,"no","no","no",-0.5,0.75,-1.05319383022664,1.25,0.352107603252198,-1.75,-0.637824614211998,0.470588235294118,2,"no",1427.7520887,1,0
"MWPF101",1,75,"apple","Is it black?","apple:visual:no:1","mask",0.5,"visual",0.5,"no","no","no",-0.5,1.5,0.113599459159594,0,-1.55965621564386,-2,-1.20122384464089,0.235294117647059,1.42857142857143,"no",1114.93723211,1,0
"MWPF101",1,76,"pig","Is it muddy?","pig:visual:yes:5","nomask",-0.5,"visual",0.5,"yes","yes","yes",0.5,1.5,0.113599459159594,1.33333333333333,0.479558524511936,-1.16666666666667,0.676773590122074,0.578947368421053,2.14285714285714,"yes",904.234561662,1,0
"MWPF101",1,77,"table","Does it have a tail?","table:visual:no:3","mask",0.5,"visual",0.5,"no","no","no",-0.5,0.333333333333333,-1.7014123243301,0,-1.55965621564386,-2,-1.20122384464089,0.6,2.2,"no",1069.78684996,1,0
"MWPF101",1,78,"alligator","Does it have scales?","alligator:visual:yes:3","nomask",-0.5,"visual",0.5,"yes","yes","yes",0.5,0.8,-0.975407610934224,2.2,1.80504810561321,-1.6,-0.299785075954666,0.571428571428571,2,"yes",942.08654511,1,0
"MWPF101",1,79,"chair","Is it furniture?","chair:nonvisual:yes:2","mask",0.5,"nonvisual",-0.5,"yes","yes","yes",0.5,0.6,-1.28655248810389,0.4,-0.947891793597124,-1.8,-0.750504460297776,0.466666666666667,2,"yes",714.76933395,1,0
"MWPF101",1,80,"bottle","Does it have a cork?","bottle:visual:yes:5","mask",0.5,"visual",0.5,"yes","no","yes",0.5,1.28571428571429,-0.219770052093615,0.285714285714286,-1.12268162846762,-1.71428571428571,-0.557339009865014,0.357142857142857,2,"yes",741.382863314,1,0
"MWPF101",1,81,"donkey","Is it furry?","donkey:nonvisual:yes:4","nomask",-0.5,"nonvisual",-0.5,"yes","yes","yes",0.5,2.33333333333333,1.41003644736652,1.44444444444444,0.649493086191586,-1.22222222222222,0.551573761137876,0.5,2,"no",NA,0,1
"MWPF101",1,82,"camel","Is it brown?","camel:visual:yes:2","mask",0.5,"visual",0.5,"yes","","yes",0.5,1.5,0.113599459159594,1.5,0.734460367031411,-1.25,0.488973846645778,0.461538461538462,2.5,"yes",927.320556948,1,0
"MWPF101",1,83,"alligator","Is it used for freight?","alligator:nonvisual:no:3","mask",0.5,"nonvisual",-0.5,"no","no","no",-0.5,1.2,-0.353117856594899,2,1.49916589458984,-1.2,0.601653692731556,0.571428571428571,3.75,"no",998.760534509,1,0
"MWPF101",1,84,"giraffe","Is it an insect?","giraffe:nonvisual:no:4","mask",0.5,"nonvisual",-0.5,"no","no","no",-0.5,1.71428571428571,0.446968970412804,1.14285714285714,0.188242133061107,-1.85714285714286,-0.879281427252951,0.5,2.11111111111111,"no",862.851242069,1,0
"MWPF101",1,85,"chicken","Does it have legs?","chicken:visual:yes:4","mask",0.5,"visual",0.5,"yes","yes","yes",0.5,1.14285714285714,-0.442016392929088,0.428571428571429,-0.9041943348795,-2,-1.20122384464089,0.555555555555556,1.16666666666667,"yes",1048.68247855,1,0
"MWPF101",1,86,"table","Is it an animal?","table:nonvisual:no:1","nomask",-0.5,"nonvisual",-0.5,"no","no","no",-0.5,0,-2.21998711961287,0,-1.55965621564386,-2,-1.20122384464089,0.6,3.33333333333333,"no",805.55561895,1,0
"MWPF101",1,87,"raccoon","Does it have eyes?","raccoon:visual:yes:3","mask",0.5,"visual",0.5,"yes","yes","yes",0.5,1.2,-0.353117856594899,0.8,-0.336127371550384,-1.8,-0.750504460297776,0.545454545454545,1.57142857142857,"yes",909.855499631,1,0
"MWPF101",1,88,"dog","Does it have legs?","dog:visual:yes:2","nomask",-0.5,"visual",0.5,"yes","yes","yes",0.5,1.4,-0.041972979425237,0.8,-0.336127371550384,-2,-1.20122384464089,0.642857142857143,1.6,"yes",812.609546294,1,0
"MWPF101",1,89,"grasshopper","Is it green?","grasshopper:visual:yes:1","mask",0.5,"visual",0.5,"yes","yes","yes",0.5,2,0.89146165208375,0.625,-0.603774306195833,-1.5,-0.0744253837831102,0.666666666666667,5,"yes",753.188962233,1,0
"MWPF101",1,90,"rabbit","Is it made of metal?","rabbit:visual:no:2","nomask",-0.5,"visual",0.5,"no","no","no",-0.5,1.25,-0.275331637302484,0.75,-0.412597924306227,-1.5,-0.0744253837831102,0.666666666666667,1.44444444444444,"no",926.793213759,1,0
"MWPF101",1,91,"pig","Does it live on farms?","pig:nonvisual:yes:2","nomask",-0.5,"nonvisual",-0.5,"yes","yes","yes",0.5,1.16666666666667,-0.404975336123176,0.833333333333333,-0.285147003046489,-1.66666666666667,-0.450024870735702,0.578947368421053,1.5,"yes",840.98570206,1,0
"MWPF101",1,92,"apple","Is it red?","apple:visual:yes:1","mask",0.5,"visual",0.5,"yes","","yes",0.5,2.625,1.86378939323894,0.625,-0.603774306195833,-1.375,0.207274231431334,0.235294117647059,1.42857142857143,"yes",745.827829873,1,0
"MWPF101",1,93,"chicken","Does it lay eggs?","chicken:nonvisual:yes:1","mask",0.5,"nonvisual",-0.5,"yes","yes","yes",0.5,2.83333333333333,2.18789864029068,2.5,2.26387142214826,-1.33333333333333,0.301174103169482,0.555555555555556,2.16666666666667,"yes",916.704496951,1,0
"MWPF101",1,94,"raccoon","Does it have stripes?","raccoon:visual:yes:4","mask",0.5,"visual",0.5,"yes","","yes",0.5,1.66666666666667,0.37288685680098,1,-0.0302451605270142,-0.666666666666667,1.80357205097985,0.545454545454545,3,"no",NA,0,1
"MWPF101",1,95,"apple","Does it have a core?","apple:visual:yes:5","mask",0.5,"visual",0.5,"yes","yes","yes",0.5,0.75,-1.05319383022664,1.25,0.352107603252198,-2,-1.20122384464089,0.235294117647059,3.2,"yes",1158.284306,1,0
"MWPF101",1,96,"tiger","Is it yellow inside?","tiger:visual:no:4","nomask",-0.5,"visual",0.5,"no","no","no",-0.5,1.5,0.113599459159594,0.75,-0.412597924306227,-0.5,2.17917153793244,0.473684210526316,2,"no",1726.36518005,1,0
"MWPF101",1,97,"table","Is it furniture?","table:nonvisual:yes:4","mask",0.5,"nonvisual",-0.5,"yes","yes","yes",0.5,1,-0.664262733764561,0.5,-0.794950688085439,-1.5,-0.0744253837831102,0.6,2.42857142857143,"yes",1088.72139629,1,0
"MWPF101",1,98,"giraffe","Is it brown?","giraffe:visual:yes:4","mask",0.5,"visual",0.5,"yes","yes","yes",0.5,3.42857142857143,3.11392506043848,3,3.02857694970669,-0.428571428571429,2.34014274662641,0.5,1,"no",NA,0,1
"MWPF101",1,99,"bottle","Is it used for holding beer?","bottle:nonvisual:yes:5","nomask",-0.5,"nonvisual",-0.5,"yes","yes","yes",0.5,2,0.89146165208375,1,-0.0302451605270142,-1.25,0.488973846645778,0.357142857142857,1.66666666666667,"timeout",NA,NA,NA
"MWPF101",1,100,"tiger","Does it have whiskers?","tiger:visual:yes:4","nomask",-0.5,"visual",0.5,"yes","yes","yes",0.5,2,0.89146165208375,0.857142857142857,-0.248732454115136,-1.42857142857143,0.0865458249108578,0.473684210526316,2.66666666666667,"yes",891.111815756,1,0
"MWPF101",1,101,"bottle","Is it an amphibian?","bottle:nonvisual:no:5","mask",0.5,"nonvisual",-0.5,"no","no","no",-0.5,0.4,-1.59769736527355,1.2,0.275637050496356,-1.8,-0.750504460297776,0.357142857142857,2,"no",871.168968035,1,0
"MWPF101",1,102,"giraffe","Does it have antennae?","giraffe:visual:no:4","mask",0.5,"visual",0.5,"no","no","no",-0.5,2.16666666666667,1.15074904972513,1,-0.0302451605270142,-0.833333333333333,1.42797256402726,0.5,2.44444444444444,"no",1394.13824072,1,0
"MWPF101",1,103,"mouse","Does it eat cheese?","mouse:nonvisual:yes:5","nomask",-0.5,"nonvisual",-0.5,"yes","yes","yes",0.5,0.75,-1.05319383022664,1.75,1.11681313081062,-1.25,0.488973846645778,0.470588235294118,2.25,"yes",690.682641347,1,0
"MWPF101",1,104,"bottle","Is it breakable?","bottle:nonvisual:yes:4","nomask",-0.5,"nonvisual",-0.5,"yes","yes","yes",0.5,2,0.89146165208375,1,-0.0302451605270142,-1,1.05237307707467,0.357142857142857,2.8,"yes",976.596534194,1,0
"MWPF101",1,105,"raccoon","Does it have a mane?","raccoon:visual:no:1","nomask",-0.5,"visual",0.5,"no","no","no",-0.5,2.2,1.20260652925341,1.4,0.581519261519726,-1.2,0.601653692731556,0.545454545454545,2,"no",1346.19716014,1,0
"MWPF101",1,106,"alligator","Is it an animal?","alligator:nonvisual:yes:1","mask",0.5,"nonvisual",-0.5,"yes","yes","yes",0.5,1.2,-0.353117856594899,0.6,-0.642009582573754,-2,-1.20122384464089,0.571428571428571,2.88888888888889,"yes",698.895430949,1,0
"MWPF101",1,107,"camel","Does it have whiskers?","camel:visual:no:3","mask",0.5,"visual",0.5,"no","no","no",-0.5,1.75,0.502530555621672,0.875,-0.22142154241662,-0.5,2.17917153793244,0.461538461538462,1.6,"no",795.403027791,1,0
"MWPF101",1,108,"dog","Does it chase cats?","dog:nonvisual:yes:5","nomask",-0.5,"nonvisual",-0.5,"yes","yes","yes",0.5,1.4,-0.041972979425237,1.2,0.275637050496356,-1,1.05237307707467,0.642857142857143,2,"yes",934.253579413,1,0
"MWPF101",1,109,"swan","Is it graceful?","swan:nonvisual:yes:1","mask",0.5,"nonvisual",-0.5,"yes","yes","yes",0.5,1.57142857142857,0.224722629577331,0.571428571428571,-0.685707041291378,-1.85714285714286,-0.879281427252951,0.533333333333333,1.71428571428571,"yes",864.118462487,1,0
"MWPF101",1,110,"bottle","Is it made of glass?","bottle:visual:yes:1","nomask",-0.5,"visual",0.5,"yes","yes","yes",0.5,2,0.89146165208375,1.25,0.352107603252198,-1.5,-0.0744253837831102,0.357142857142857,1.33333333333333,"yes",666.125636199,1,0
"MWPF101",1,111,"tiger","Does it live in zoos?","tiger:nonvisual:yes:4","nomask",-0.5,"nonvisual",-0.5,"yes","yes","yes",0.5,1.5,0.113599459159594,1.75,1.11681313081062,-1.75,-0.637824614211998,0.473684210526316,3.16666666666667,"yes",706.667563936,1,0
"MWPF101",1,112,"grasshopper","Does it have legs?","grasshopper:visual:yes:2","nomask",-0.5,"visual",0.5,"yes","yes","yes",0.5,1,-0.664262733764561,0.25,-1.17730345186465,-1.5,-0.0744253837831102,0.666666666666667,1.75,"yes",764.64945561,1,0
"MWPF101",1,113,"tiger","Is it a carnivore?","tiger:nonvisual:yes:1","mask",0.5,"nonvisual",-0.5,"yes","yes","yes",0.5,1.5,0.113599459159594,2.25,1.88151865836905,-0.75,1.61577230750355,0.473684210526316,2.25,"yes",770.334267872,1,0
"MWPF101",1,114,"camel","Does it have a hump?","camel:visual:yes:1","nomask",-0.5,"visual",0.5,"yes","yes","yes",0.5,1.6,0.269171897744426,1,-0.0302451605270142,-2,-1.20122384464089,0.461538461538462,NA,"yes",650.818997761,1,0
"MWPF101",1,115,"swan","Does it have a beak?","swan:visual:yes:2","nomask",-0.5,"visual",0.5,"yes","yes","yes",0.5,3.25,2.83611713439414,1.5,0.734460367031411,-1.75,-0.637824614211998,0.533333333333333,2.8,"yes",784.269129799,1,0
"MWPF101",1,116,"strawberry","Does it taste good?","strawberry:nonvisual:yes:4","mask",0.5,"nonvisual",-0.5,"yes","yes","yes",0.5,2.33333333333333,1.41003644736652,2.16666666666667,1.75406773710931,-1.16666666666667,0.676773590122074,0.125,1,"yes",561.92726997,1,0
"MWPF101",1,117,"donkey","Is it a mammal?","donkey:nonvisual:yes:3","nomask",-0.5,"nonvisual",-0.5,"yes","","yes",0.5,2,0.89146165208375,2,1.49916589458984,-2,-1.20122384464089,0.5,4,"yes",560.889692861,1,0
"MWPF101",1,118,"pig","Is it an animal?","pig:nonvisual:yes:1","nomask",-0.5,"nonvisual",-0.5,"yes","yes","yes",0.5,1,-0.664262733764561,0.375,-0.986127069975045,-1.75,-0.637824614211998,0.578947368421053,2.6,"yes",632.634213951,1,0
"MWPF101",1,119,"chicken","Does it live on a farm?","chicken:nonvisual:yes:2","nomask",-0.5,"nonvisual",-0.5,"yes","yes","yes",0.5,1.2,-0.353117856594899,0.8,-0.336127371550384,-1.2,0.601653692731556,0.555555555555556,2.16666666666667,"yes",586.938238877,1,0
"MWPF101",1,120,"rabbit","Does it eat carrots?","rabbit:nonvisual:yes:5","mask",0.5,"nonvisual",-0.5,"yes","yes","yes",0.5,1.85714285714286,0.669215311248277,2.14285714285714,1.71765318817796,-1.57142857142857,-0.235396592477078,0.666666666666667,2.66666666666667,"yes",594.130180369,1,0
"MWPF101",1,121,"chair","Is it used for relaxing?","chair:nonvisual:yes:4","mask",0.5,"nonvisual",-0.5,"yes","yes","yes",0.5,0.6,-1.28655248810389,0,-1.55965621564386,-2,-1.20122384464089,0.466666666666667,3.33333333333333,"yes",826.412477414,1,0
"MWPF101",1,122,"camel","Does it have legs?","camel:visual:yes:3","nomask",-0.5,"visual",0.5,"yes","yes","yes",0.5,0.666666666666667,-1.18283752904733,1.83333333333333,1.24426405207036,-1.83333333333333,-0.825624357688294,0.461538461538462,1.16666666666667,"yes",624.388346623,1,0
"MWPF101",1,123,"grasshopper","Does it fly?","grasshopper:nonvisual:yes:4","mask",0.5,"nonvisual",-0.5,"yes","","yes",0.5,1.71428571428571,0.446968970412804,1.57142857142857,0.843704013825471,-0.285714285714286,2.66208516401435,0.666666666666667,2,"no",NA,0,1
"MWPF101",1,124,"giraffe","Is it a mammal?","giraffe:nonvisual:yes:4","nomask",-0.5,"nonvisual",-0.5,"yes","yes","yes",0.5,1.33333333333333,-0.145687938481791,1.66666666666667,0.989362209550886,-0.333333333333333,2.55477102488503,0.5,2,"yes",587.480410002,1,0
"MWPF101",1,125,"alligator","Does it live in the desert?","alligator:nonvisual:no:2","nomask",-0.5,"nonvisual",-0.5,"no","no","no",-0.5,1.5,0.113599459159594,1.5,0.734460367031411,-1.25,0.488973846645778,0.571428571428571,3.5,"yes",NA,0,1
"MWPF101",1,126,"chair","Does it have armrests?","chair:visual:yes:3","mask",0.5,"visual",0.5,"yes","yes","yes",0.5,1.5,0.113599459159594,0.5,-0.794950688085439,-1.75,-0.637824614211998,0.466666666666667,4.25,"yes",1753.02547443,1,0
"MWPF101",1,127,"swan","Does it have feathers?","swan:visual:yes:3","mask",0.5,"visual",0.5,"yes","yes","yes",0.5,1,-0.664262733764561,0.333333333333333,-1.04985253060491,-1.83333333333333,-0.825624357688294,0.533333333333333,2.6,"yes",840.507405228,1,0
"MWPF101",1,128,"chair","Is it made of wood?","chair:visual:yes:2","mask",0.5,"visual",0.5,"yes","yes","yes",0.5,2.16666666666667,1.15074904972513,0.5,-0.794950688085439,-1.33333333333333,0.301174103169482,0.466666666666667,1.83333333333333,"yes",689.426827012,1,0
"MWPF101",1,129,"table","Does it have a neck?","table:visual:no:1","mask",0.5,"visual",0.5,"no","no","no",-0.5,0.6,-1.28655248810389,0.6,-0.642009582573754,-1.4,0.150934308388445,0.6,2.8,"no",1376.3644576,1,0
"MWPF101",1,130,"mouse","Does it have a tail?","mouse:visual:yes:1","mask",0.5,"visual",0.5,"yes","yes","yes",0.5,1.6,0.269171897744426,0.2,-1.25377400462049,-1.8,-0.750504460297776,0.470588235294118,1.25,"yes",579.250511189,1,0
"MWPF101",1,131,"donkey","Does it have legs?","donkey:visual:yes:1","mask",0.5,"visual",0.5,"yes","yes","yes",0.5,1,-0.664262733764561,0.857142857142857,-0.248732454115136,-1.71428571428571,-0.557339009865014,0.5,1.28571428571429,"yes",634.410907864,1,0
"MWPF101",1,132,"table","Does it have legs?","table:visual:yes:3","mask",0.5,"visual",0.5,"yes","yes","yes",0.5,1.25,-0.275331637302484,1.5,0.734460367031411,-0.75,1.61577230750355,0.6,1.75,"yes",666.289123998,1,0
"MWPF101",1,133,"pig","Is it made of glass?","pig:visual:no:1","mask",0.5,"visual",0.5,"no","no","no",-0.5,1.25,-0.275331637302484,0.5,-0.794950688085439,-1.25,0.488973846645778,0.578947368421053,1.8,"no",1097.22352127,1,0
"MWPF101",1,134,"strawberry","Is it a fruit?","strawberry:nonvisual:yes:1","nomask",-0.5,"nonvisual",-0.5,"yes","yes","yes",0.5,1,-0.664262733764561,3,3.02857694970669,-1.5,-0.0744253837831102,0.125,3.33333333333333,"yes",723.006076412,1,0
"MWPF101",1,135,"rabbit","Does it have whiskers?","rabbit:visual:yes:3","nomask",-0.5,"visual",0.5,"yes","yes","yes",0.5,2.33333333333333,1.41003644736652,0.166666666666667,-1.30475437312439,-0.833333333333333,1.42797256402726,0.666666666666667,1.85714285714286,"yes",1044.26260543,1,0
"MWPF101",1,136,"raccoon","Does it have a mask?","raccoon:visual:yes:5","mask",0.5,"visual",0.5,"yes","yes","yes",0.5,2.4,1.51375140642307,2.2,1.80504810561321,-1,1.05237307707467,0.545454545454545,2.71428571428571,"no",NA,0,1
"MWPF101",1,137,"chicken","Is it a mammal?","chicken:nonvisual:no:2","mask",0.5,"nonvisual",-0.5,"no","no","no",-0.5,1.14285714285714,-0.442016392929088,2.14285714285714,1.71765318817796,-1.57142857142857,-0.235396592477078,0.555555555555556,1.33333333333333,"no",1322.42793805,1,0
"MWPF101",1,138,"chair","Is it long?","chair:visual:no:1","mask",0.5,"visual",0.5,"no","no","no",-0.5,1.42857142857143,0.00247628874185779,0,-1.55965621564386,-1.57142857142857,-0.235396592477078,0.466666666666667,2.5,"yes",NA,0,1
"MWPF101",2,139,"camel","Is it a mammal?","camel:nonvisual:yes:4","nomask",-0.5,"nonvisual",-0.5,"yes","yes","yes",0.5,0.5,-1.44212492668872,2,1.49916589458984,-1.5,-0.0744253837831102,0.461538461538462,2.5,"yes",1459.70216329,1,0
"MWPF101",2,140,"mouse","Is it hunted by people?","mouse:nonvisual:no:5","nomask",-0.5,"nonvisual",-0.5,"no","","no",-0.5,1,-0.664262733764561,1,-0.0302451605270142,-1.2,0.601653692731556,0.470588235294118,1.5,"no",1241.92997703,1,0
"MWPF101",2,141,"camel","Is it beige?","camel:visual:yes:5","nomask",-0.5,"visual",0.5,"yes","yes","yes",0.5,1.8,0.580316774914088,0.6,-0.642009582573754,-0.8,1.50309246141778,0.461538461538462,1.9,"yes",1001.71966333,1,0
"MWPF101",2,142,"swan","Does it have wings?","swan:visual:yes:4","nomask",-0.5,"visual",0.5,"yes","yes","yes",0.5,2,0.89146165208375,1.83333333333333,1.24426405207036,-1.33333333333333,0.301174103169482,0.533333333333333,1,"yes",1017.73728349,1,0
"MWPF101",2,143,"grasshopper","Is it an insect?","grasshopper:nonvisual:yes:1","mask",0.5,"nonvisual",-0.5,"yes","yes","yes",0.5,1.5,0.113599459159594,1.5,0.734460367031411,-1.33333333333333,0.301174103169482,0.666666666666667,2.5,"yes",797.219262982,1,0
"MWPF101",2,144,"chicken","Does it have a beak?","chicken:visual:yes:3","mask",0.5,"visual",0.5,"yes","yes","yes",0.5,1.4,-0.041972979425237,1.6,0.887401472543096,-1.2,0.601653692731556,0.555555555555556,1.25,"yes",1088.17276172,1,0
"MWPF101",2,145,"camel","Is it large?","camel:visual:yes:4","nomask",-0.5,"visual",0.5,"yes","yes","yes",0.5,1.75,0.502530555621672,0.5,-0.794950688085439,-1.75,-0.637824614211998,0.461538461538462,1.25,"yes",771.524306852,1,0
"MWPF101",2,146,"dog","Is it used for protection?","dog:nonvisual:yes:4","nomask",-0.5,"nonvisual",-0.5,"yes","yes","yes",0.5,1.16666666666667,-0.404975336123176,0.666666666666667,-0.540048845565964,-1.83333333333333,-0.825624357688294,0.642857142857143,2.4,"yes",1158.06074598,1,0
"MWPF101",2,147,"chicken","Is it orange?","chicken:visual:no:1","mask",0.5,"visual",0.5,"no","no","no",-0.5,1.5,0.113599459159594,1.5,0.734460367031411,-0.75,1.61577230750355,0.555555555555556,2.5,"no",1033.60358241,1,0
"MWPF101",2,148,"apple","Is it used for cider?","apple:nonvisual:yes:5","nomask",-0.5,"nonvisual",-0.5,"yes","yes","yes",0.5,0.6,-1.28655248810389,0.6,-0.642009582573754,-1.8,-0.750504460297776,0.235294117647059,2.25,"yes",1049.2086811,1,0
"MWPF101",2,149,"alligator","Does it live in water?","alligator:nonvisual:yes:4","mask",0.5,"nonvisual",-0.5,"yes","yes","yes",0.5,2.33333333333333,1.41003644736652,2.16666666666667,1.75406773710931,-1.16666666666667,0.676773590122074,0.571428571428571,2.5,"yes",657.770270016,1,0
"MWPF101",2,150,"chair","Does it have a cushion?","chair:visual:yes:5","nomask",-0.5,"visual",0.5,"yes","","yes",0.5,2,0.89146165208375,0.75,-0.412597924306227,-1.25,0.488973846645778,0.466666666666667,2.16666666666667,"yes",612.7407928,1,0
"MWPF101",2,151,"donkey","Does it have hooves?","donkey:visual:yes:4","mask",0.5,"visual",0.5,"yes","yes","yes",0.5,2.57142857142857,1.78044701542564,1.57142857142857,0.843704013825471,-0.857142857142857,1.3743154944626,0.5,2,"yes",1569.78228746,1,0
"MWPF101",2,152,"rabbit","Is it used for making jam?","rabbit:nonvisual:no:4","nomask",-0.5,"nonvisual",-0.5,"no","no","no",-0.5,0.5,-1.44212492668872,1,-0.0302451605270142,-1.75,-0.637824614211998,0.666666666666667,3.33333333333333,"no",1052.43433302,1,0
"MWPF101",2,153,"chair","Is it used for sitting on?","chair:nonvisual:yes:1","nomask",-0.5,"nonvisual",-0.5,"yes","yes","yes",0.5,0.75,-1.05319383022664,1,-0.0302451605270142,-1.5,-0.0744253837831102,0.466666666666667,2.42857142857143,"yes",588.99552346,1,0
"MWPF101",2,154,"table","Is it found in dining rooms?","table:nonvisual:yes:3","nomask",-0.5,"nonvisual",-0.5,"yes","yes","yes",0.5,1.57142857142857,0.224722629577331,0.285714285714286,-1.12268162846762,-1.85714285714286,-0.879281427252951,0.6,2.25,"yes",1178.65412298,1,0
"MWPF101",2,155,"strawberry","Does it taste sweet?","strawberry:nonvisual:yes:2","mask",0.5,"nonvisual",-0.5,"yes","yes","yes",0.5,1.2,-0.353117856594899,1.6,0.887401472543096,-1.6,-0.299785075954666,0.125,1.42857142857143,"yes",671.356864914,1,0
"MWPF101",2,156,"bottle","Is it made of plastic?","bottle:visual:yes:2","nomask",-0.5,"visual",0.5,"yes","yes","yes",0.5,2.4,1.51375140642307,0.8,-0.336127371550384,-1.2,0.601653692731556,0.357142857142857,1.8,"yes",1195.05080668,1,0
"MWPF101",2,157,"table","Is it used for eating on?","table:nonvisual:yes:1","mask",0.5,"nonvisual",-0.5,"yes","yes","yes",0.5,2,0.89146165208375,0,-1.55965621564386,-2,-1.20122384464089,0.6,2.75,"yes",1443.80696886,1,0
"MWPF101",2,158,"donkey","Does it have stripes?","donkey:visual:no:3","nomask",-0.5,"visual",0.5,"no","no","no",-0.5,0.75,-1.05319383022664,0.25,-1.17730345186465,-1.5,-0.0744253837831102,0.5,2,"no",866.655944905,1,0
"MWPF101",2,159,"tiger","Does it have teeth?","tiger:visual:yes:2","mask",0.5,"visual",0.5,"yes","yes","yes",0.5,2.25,1.28039274854583,0.5,-0.794950688085439,-1.25,0.488973846645778,0.473684210526316,3,"yes",593.653024174,1,0
"MWPF101",2,160,"mouse","Does it have whiskers?","mouse:visual:yes:4","mask",0.5,"visual",0.5,"yes","","yes",0.5,1.33333333333333,-0.145687938481791,0.333333333333333,-1.04985253060491,-2,-1.20122384464089,0.470588235294118,2.5,"yes",516.873459681,1,0
"MWPF101",2,161,"giraffe","Does it live in Africa?","giraffe:nonvisual:yes:2","mask",0.5,"nonvisual",-0.5,"yes","yes","yes",0.5,2,0.89146165208375,1.83333333333333,1.24426405207036,-1.16666666666667,0.676773590122074,0.5,3.25,"yes",1285.08884989,1,0
"MWPF101",2,162,"chicken","Does it live in a coop?","chicken:nonvisual:yes:5","mask",0.5,"nonvisual",-0.5,"yes","yes","yes",0.5,1.4,-0.041972979425237,0.6,-0.642009582573754,-1.6,-0.299785075954666,0.555555555555556,2.8,"yes",591.526162229,1,0
"MWPF101",2,163,"giraffe","Does it have spots?","giraffe:visual:yes:1","nomask",-0.5,"visual",0.5,"yes","yes","yes",0.5,2.85714285714286,2.22493969709659,1.85714285714286,1.28067860100171,-1.57142857142857,-0.235396592477078,0.5,2,"yes",887.700244028,1,0
"MWPF101",2,164,"alligator","Is it a mammal?","alligator:nonvisual:no:1","nomask",-0.5,"nonvisual",-0.5,"no","no","no",-0.5,2,0.89146165208375,1.66666666666667,0.989362209550886,-1.16666666666667,0.676773590122074,0.571428571428571,2.75,"no",758.470758097,1,0
"MWPF101",2,165,"swan","Does it lay eggs?","swan:nonvisual:yes:4","nomask",-0.5,"nonvisual",-0.5,"yes","yes","yes",0.5,1.66666666666667,0.37288685680098,1.33333333333333,0.479558524511936,-1,1.05237307707467,0.533333333333333,1.33333333333333,"yes",838.902943768,1,0
"MWPF101",2,166,"alligator","Is it round?","alligator:visual:no:3","nomask",-0.5,"visual",0.5,"no","no","no",-0.5,1.85714285714286,0.669215311248277,0.857142857142857,-0.248732454115136,-2,-1.20122384464089,0.571428571428571,1.11111111111111,"no",1256.37127087,1,0
"MWPF101",2,167,"tiger","Does it live in Africa?","tiger:nonvisual:yes:3","mask",0.5,"nonvisual",-0.5,"yes","","yes",0.5,1.8,0.580316774914088,1.8,1.19328368356647,-0.8,1.50309246141778,0.473684210526316,3,"timeout",NA,NA,NA
"MWPF101",2,168,"chair","Is it comfortable?","chair:nonvisual:yes:3","mask",0.5,"nonvisual",-0.5,"yes","","yes",0.5,1.25,-0.275331637302484,0,-1.55965621564386,-1.75,-0.637824614211998,0.466666666666667,1.71428571428571,"yes",601.652139041,1,0
"MWPF101",2,169,"grasshopper","Does it live in grass?","grasshopper:nonvisual:yes:2","mask",0.5,"nonvisual",-0.5,"yes","yes","yes",0.5,1.25,-0.275331637302484,0.5,-0.794950688085439,-1,1.05237307707467,0.666666666666667,1.88888888888889,"yes",454.570167814,1,0
"MWPF101",2,170,"raccoon","Does it have a beak?","raccoon:visual:no:5","mask",0.5,"visual",0.5,"no","no","no",-0.5,0.666666666666667,-1.18283752904733,0.333333333333333,-1.04985253060491,-1.77777777777778,-0.700424528704097,0.545454545454545,2.4,"yes",NA,0,1
"MWPF101",2,171,"camel","Is it used by riding?","camel:nonvisual:yes:3","nomask",-0.5,"nonvisual",-0.5,"yes","yes","yes",0.5,0.857142857142857,-0.886509074600034,0.857142857142857,-0.248732454115136,-1.57142857142857,-0.235396592477078,0.461538461538462,2,"yes",880.339111667,1,0
"MWPF101",2,172,"donkey","Does it eat peanuts?","donkey:nonvisual:no:5","mask",0.5,"nonvisual",-0.5,"no","","no",-0.5,1.33333333333333,-0.145687938481791,1.33333333333333,0.479558524511936,-0.333333333333333,2.55477102488503,0.5,3,"yes",NA,0,1
"MWPF101",2,173,"dog","Does it have four legs?","dog:visual:yes:1","mask",0.5,"visual",0.5,"yes","yes","yes",0.5,1.25,-0.275331637302484,1,-0.0302451605270142,-2,-1.20122384464089,0.642857142857143,1.16666666666667,"no",NA,0,1
"MWPF101",2,174,"grasshopper","Is it made of wood?","grasshopper:visual:no:1","mask",0.5,"visual",0.5,"no","no","no",-0.5,1.16666666666667,-0.404975336123176,0.166666666666667,-1.30475437312439,-2,-1.20122384464089,0.666666666666667,1.75,"no",824.704220169,1,0
"MWPF101",2,175,"alligator","Does it have a tail?","alligator:visual:yes:4","nomask",-0.5,"visual",0.5,"yes","yes","yes",0.5,1.16666666666667,-0.404975336123176,0.5,-0.794950688085439,-1.83333333333333,-0.825624357688294,0.571428571428571,1,"yes",1172.67085041,1,0
"MWPF101",2,176,"chicken","Does it have four legs?","chicken:visual:no:4","nomask",-0.5,"visual",0.5,"no","","no",-0.5,0.5,-1.44212492668872,0.25,-1.17730345186465,-2,-1.20122384464089,0.555555555555556,1,"no",1003.09296063,1,0
"MWPF101",2,177,"chair","Is it nutritious?","chair:nonvisual:no:2","mask",0.5,"nonvisual",-0.5,"no","no","no",-0.5,0.428571428571429,-1.55324809710645,0.857142857142857,-0.248732454115136,-1.85714285714286,-0.879281427252951,0.466666666666667,1,"no",919.196735078,1,0
"MWPF101",2,178,"raccoon","Is it used for holding beer?","raccoon:nonvisual:no:3","nomask",-0.5,"nonvisual",-0.5,"no","no","no",-0.5,1.25,-0.275331637302484,0.75,-0.412597924306227,-1.75,-0.637824614211998,0.545454545454545,1,"no",922.548614792,1,0
"MWPF101",2,179,"pig","Is it eaten as bacon?","pig:nonvisual:yes:3","mask",0.5,"nonvisual",-0.5,"yes","yes","yes",0.5,1.2,-0.353117856594899,2.2,1.80504810561321,-2,-1.20122384464089,0.578947368421053,3.57142857142857,"timeout",NA,NA,NA
"MWPF101",2,180,"grasshopper","Does it have long legs?","grasshopper:visual:yes:3","mask",0.5,"visual",0.5,"yes","","yes",0.5,1,-0.664262733764561,1.2,0.275637050496356,-1.2,0.601653692731556,0.666666666666667,1.83333333333333,"yes",1744.21234248,1,0
"MWPF101",2,181,"mouse","Is it a rodent?","mouse:nonvisual:yes:1","nomask",-0.5,"nonvisual",-0.5,"yes","yes","yes",0.5,1.14285714285714,-0.442016392929088,1.14285714285714,0.188242133061107,-1.85714285714286,-0.879281427252951,0.470588235294118,4,"yes",692.2042183,1,0
"MWPF101",2,182,"dog","Is it an animal?","dog:nonvisual:yes:2","mask",0.5,"nonvisual",-0.5,"yes","yes","yes",0.5,1.42857142857143,0.00247628874185779,1.57142857142857,0.843704013825471,-2,-1.20122384464089,0.642857142857143,1,"yes",795.158176334,1,0
"MWPF101",2,183,"giraffe","Is it green?","giraffe:visual:no:1","mask",0.5,"visual",0.5,"no","no","no",-0.5,1.6,0.269171897744426,0.4,-0.947891793597124,-1.8,-0.750504460297776,0.5,2.5,"yes",NA,0,1
"MWPF101",2,184,"rabbit","Does it have ears?","rabbit:visual:yes:1","nomask",-0.5,"visual",0.5,"yes","yes","yes",0.5,2,0.89146165208375,0.5,-0.794950688085439,-1.75,-0.637824614211998,0.666666666666667,1.25,"yes",931.114994281,1,0
"MWPF101",2,185,"camel","Does it drink water?","camel:nonvisual:yes:2","mask",0.5,"nonvisual",-0.5,"yes","yes","yes",0.5,0.5,-1.44212492668872,0.666666666666667,-0.540048845565964,-1.83333333333333,-0.825624357688294,0.461538461538462,2.33333333333333,"yes",738.378490205,1,0
"MWPF101",2,186,"raccoon","Is it black?","raccoon:visual:yes:1","nomask",-0.5,"visual",0.5,"yes","","yes",0.5,1.75,0.502530555621672,1.25,0.352107603252198,-0.5,2.17917153793244,0.545454545454545,1.4,"yes",838.120863831,1,0
"MWPF101",2,187,"table","Is it made of wood?","table:visual:yes:1","nomask",-0.5,"visual",0.5,"yes","yes","yes",0.5,2,0.89146165208375,2,1.49916589458984,-1,1.05237307707467,0.6,2.5,"yes",576.823287993,1,0
"MWPF101",2,188,"pig","Is it smelly?","pig:nonvisual:yes:4","nomask",-0.5,"nonvisual",-0.5,"yes","yes","yes",0.5,1,-0.664262733764561,0.333333333333333,-1.04985253060491,-1.83333333333333,-0.825624357688294,0.578947368421053,1.75,"yes",789.645596524,1,0
"MWPF101",2,189,"rabbit","Is it edible?","rabbit:nonvisual:yes:3","mask",0.5,"nonvisual",-0.5,"yes","yes","yes",0.5,0.2,-1.90884224244321,0.8,-0.336127371550384,-1.4,0.150934308388445,0.666666666666667,2.66666666666667,"no",NA,0,1
"MWPF101",2,190,"strawberry","Is it small?","strawberry:visual:yes:4","mask",0.5,"visual",0.5,"yes","yes","yes",0.5,1.6,0.269171897744426,0.8,-0.336127371550384,-1.4,0.150934308388445,0.125,2.5,"yes",963.861596538,1,0
"MWPF101",2,191,"giraffe","Does it eat leaves?","giraffe:nonvisual:yes:1","mask",0.5,"nonvisual",-0.5,"yes","yes","yes",0.5,1.6,0.269171897744426,2.2,1.80504810561321,-1.2,0.601653692731556,0.5,1.75,"yes",1043.75199135,1,0
"MWPF101",2,192,"dog","Does it have a nose?","dog:visual:yes:5","mask",0.5,"visual",0.5,"yes","yes","yes",0.5,1.25,-0.275331637302484,0,-1.55965621564386,-2,-1.20122384464089,0.642857142857143,2,"yes",762.357204803,1,0
"MWPF101",2,193,"tiger","Does it live in India?","tiger:nonvisual:yes:5","nomask",-0.5,"nonvisual",-0.5,"yes","yes","yes",0.5,0.75,-1.05319383022664,1.5,0.734460367031411,-1,1.05237307707467,0.473684210526316,2,"yes",802.328826394,1,0
"MWPF101",2,194,"bottle","Does it have a lid?","bottle:visual:yes:3","nomask",-0.5,"visual",0.5,"yes","","yes",0.5,2.5,1.66932384500791,0.25,-1.17730345186465,-1.5,-0.0744253837831102,0.357142857142857,1.71428571428571,"yes",724.275578046,1,0
"MWPF101",2,195,"raccoon","Is it used for protection?","raccoon:nonvisual:no:2","mask",0.5,"nonvisual",-0.5,"no","no","no",-0.5,1,-0.664262733764561,0.5,-0.794950688085439,-1.5,-0.0744253837831102,0.545454545454545,3.6,"yes",NA,0,1
"MWPF101",2,196,"swan","Does it have a long neck?","swan:visual:yes:1","mask",0.5,"visual",0.5,"yes","yes","yes",0.5,2,0.89146165208375,1.5,0.734460367031411,-2,-1.20122384464089,0.533333333333333,2.6,"yes",870.946548588,1,0
"MWPF101",2,197,"rabbit","Is it hunted by people?","rabbit:nonvisual:yes:4","nomask",-0.5,"nonvisual",-0.5,"yes","","yes",0.5,1.5,0.113599459159594,1,-0.0302451605270142,-0.75,1.61577230750355,0.666666666666667,3.33333333333333,"yes",1171.51959235,1,0
"MWPF101",2,198,"bottle","Is it used for holding liquids?","bottle:nonvisual:yes:2","nomask",-0.5,"nonvisual",-0.5,"yes","yes","yes",0.5,1.4,-0.041972979425237,0.8,-0.336127371550384,-1.6,-0.299785075954666,0.357142857142857,1.25,"yes",1103.90712984,1,0
"MWPF101",2,199,"alligator","Does it live in swamps?","alligator:nonvisual:yes:3","nomask",-0.5,"nonvisual",-0.5,"yes","yes","yes",0.5,1.33333333333333,-0.145687938481791,1.66666666666667,0.989362209550886,-1.33333333333333,0.301174103169482,0.571428571428571,2,"yes",817.643449118,1,0
"MWPF101",2,200,"tiger","Is it used for sitting on?","tiger:nonvisual:no:1","mask",0.5,"nonvisual",-0.5,"no","no","no",-0.5,1.5,0.113599459159594,0.25,-1.17730345186465,-1.75,-0.637824614211998,0.473684210526316,4,"no",899.980077287,1,0
"MWPF101",2,201,"swan","Does it live on water?","swan:nonvisual:yes:3","mask",0.5,"nonvisual",-0.5,"yes","yes","yes",0.5,1.66666666666667,0.37288685680098,1.66666666666667,0.989362209550886,-1.33333333333333,0.301174103169482,0.533333333333333,2.25,"yes",614.454753057,1,0
"MWPF101",2,202,"tiger","Does it grow underground?","tiger:nonvisual:no:3","mask",0.5,"nonvisual",-0.5,"no","no","no",-0.5,1.66666666666667,0.37288685680098,1.66666666666667,0.989362209550886,-1,1.05237307707467,0.473684210526316,1,"no",980.298201728,1,0
"MWPF101",2,203,"bottle","Is it a container?","bottle:nonvisual:yes:3","mask",0.5,"nonvisual",-0.5,"yes","yes","yes",0.5,2,0.89146165208375,1.66666666666667,0.989362209550886,-0.833333333333333,1.42797256402726,0.357142857142857,1.33333333333333,"yes",697.402369289,1,0
"MWPF101",2,204,"pig","Is it tropical?","pig:nonvisual:no:1","mask",0.5,"nonvisual",-0.5,"no","no","no",-0.5,0.555555555555556,-1.35569579414159,1,-0.0302451605270142,-1.33333333333333,0.301174103169482,0.578947368421053,3,"no",732.800515252,1,0
"MWPF101",2,205,"apple","Is it green?","apple:visual:yes:2","mask",0.5,"visual",0.5,"yes","","yes",0.5,2.33333333333333,1.41003644736652,1,-0.0302451605270142,-1,1.05237307707467,0.235294117647059,2.33333333333333,"yes",580.346639676,1,0
"MWPF101",2,206,"mouse","Does it eat?","mouse:nonvisual:yes:3","mask",0.5,"nonvisual",-0.5,"yes","yes","yes",0.5,1.33333333333333,-0.145687938481791,0.833333333333333,-0.285147003046489,-1.66666666666667,-0.450024870735702,0.470588235294118,2.33333333333333,"yes",1126.23005541,1,0
"MWPF101",2,207,"apple","Is it eaten in pies?","apple:nonvisual:yes:3","mask",0.5,"nonvisual",-0.5,"yes","yes","yes",0.5,2.33333333333333,1.41003644736652,1.83333333333333,1.24426405207036,-1.5,-0.0744253837831102,0.235294117647059,1.5,"yes",1325.96003445,1,0
"MWPF102",0,0,"apple","Is it an animal?","apple:nonvisual:no:1","mask",0.5,"nonvisual",-0.5,"no","no","no",-0.5,1.6,0.269171897744426,1,-0.0302451605270142,-1.4,0.150934308388445,0.235294117647059,3,"no",697.440521384,1,0
"MWPF102",0,1,"table","Does it have a nose?","table:visual:no:2","mask",0.5,"visual",0.5,"no","no","no",-0.5,1.25,-0.275331637302484,0,-1.55965621564386,-2,-1.20122384464089,0.6,1.5,"no",669.062444358,1,0
"MWPF102",0,2,"donkey","Does it make noises?","donkey:nonvisual:yes:5","mask",0.5,"nonvisual",-0.5,"yes","yes","yes",0.5,1.4,-0.041972979425237,1,-0.0302451605270142,-1.6,-0.299785075954666,0.5,1.33333333333333,"yes",1007.985676,1,0
"MWPF102",0,3,"tiger","Does it have stripes?","tiger:visual:yes:1","nomask",-0.5,"visual",0.5,"yes","yes","yes",0.5,1,-0.664262733764561,0.75,-0.412597924306227,-1.75,-0.637824614211998,0.473684210526316,2.75,"yes",538.765360019,1,0
"MWPF102",0,4,"camel","Does it have a cork?","camel:visual:no:4","nomask",-0.5,"visual",0.5,"no","no","no",-0.5,1.75,0.502530555621672,0.75,-0.412597924306227,-1.25,0.488973846645778,0.461538461538462,1.33333333333333,"no",1297.07215412,1,0
"MWPF102",0,5,"zebra","Does it live in Africa?","zebra:nonvisual:yes:3","nomask",-0.5,"nonvisual",-0.5,"yes","yes","yes",0.5,1.33333333333333,-0.145687938481791,1.83333333333333,1.24426405207036,-0.666666666666667,1.80357205097985,0.538461538461538,2.88888888888889,"yes",565.905812895,1,0
"MWPF102",0,6,"chicken","Is it used for making jam?","chicken:nonvisual:no:3","mask",0.5,"nonvisual",-0.5,"no","no","no",-0.5,0.5,-1.44212492668872,0.25,-1.17730345186465,-2,-1.20122384464089,0.555555555555556,2.33333333333333,"no",1826.47206518,1,0
"MWPF102",0,7,"pig","Is it muddy?","pig:visual:yes:5","mask",0.5,"visual",0.5,"yes","yes","yes",0.5,1.5,0.113599459159594,1.33333333333333,0.479558524511936,-1.16666666666667,0.676773590122074,0.578947368421053,2.14285714285714,"no",NA,0,1
"MWPF102",0,8,"chicken","Does it have hooves?","chicken:visual:no:3","mask",0.5,"visual",0.5,"no","no","no",-0.5,1.2,-0.353117856594899,1,-0.0302451605270142,-1.8,-0.750504460297776,0.555555555555556,1.5,"no",926.410938031,1,0
"MWPF102",0,9,"chair","Does it have a seat?","chair:visual:yes:4","mask",0.5,"visual",0.5,"yes","yes","yes",0.5,1.55555555555556,0.200028591706723,0.666666666666667,-0.540048845565964,-1.88888888888889,-0.950824186672492,0.466666666666667,1.88888888888889,"yes",602.5355733,1,0
"MWPF102",0,10,"zebra","Does it have four legs?","zebra:visual:yes:2","nomask",-0.5,"visual",0.5,"yes","yes","yes",0.5,1,-0.664262733764561,1.2,0.275637050496356,-1.8,-0.750504460297776,0.538461538461538,1.8,"yes",729.615219811,1,0
"MWPF102",0,11,"table","Does it have legs?","table:visual:yes:3","nomask",-0.5,"visual",0.5,"yes","yes","yes",0.5,1.25,-0.275331637302484,1.5,0.734460367031411,-0.75,1.61577230750355,0.6,1.75,"yes",820.13698254,1,0
"MWPF102",0,12,"camel","Does it spit?","camel:nonvisual:yes:5","mask",0.5,"nonvisual",-0.5,"yes","yes","yes",0.5,1.83333333333333,0.632174254442365,2.5,2.26387142214826,-1.5,-0.0744253837831102,0.461538461538462,2.33333333333333,"yes",939.799547894,1,0
"MWPF102",0,13,"grasshopper","Is it found in summer?","grasshopper:nonvisual:yes:3","nomask",-0.5,"nonvisual",-0.5,"yes","yes","yes",0.5,2,0.89146165208375,2.25,1.88151865836905,-1.25,0.488973846645778,0.666666666666667,2.2,"yes",1085.5385366,1,0
"MWPF102",0,14,"deer","Is it used for cider?","deer:nonvisual:no:5","nomask",-0.5,"nonvisual",-0.5,"no","no","no",-0.5,0.75,-1.05319383022664,1.25,0.352107603252198,-1.75,-0.637824614211998,0.5625,3,"no",932.995984214,1,0
"MWPF102",0,15,"camel","Is it large?","camel:visual:yes:4","mask",0.5,"visual",0.5,"yes","yes","yes",0.5,1.75,0.502530555621672,0.5,-0.794950688085439,-1.75,-0.637824614211998,0.461538461538462,1.25,"yes",912.926065037,1,0
"MWPF102",0,16,"pineapple","Is it a carnivore?","pineapple:nonvisual:no:3","nomask",-0.5,"nonvisual",-0.5,"no","no","no",-0.5,1.25,-0.275331637302484,0.25,-1.17730345186465,-1.75,-0.637824614211998,0.3125,3,"no",681.468527531,1,0
"MWPF102",0,17,"elephant","Does it have a tail?","elephant:visual:yes:4","mask",0.5,"visual",0.5,"yes","yes","yes",0.5,2.33333333333333,1.41003644736652,2.33333333333333,2.00896957962879,-0.333333333333333,2.55477102488503,0.666666666666667,2,"yes",851.035551634,1,0
"MWPF102",0,18,"tiger","Does it have large teeth?","tiger:visual:yes:5","mask",0.5,"visual",0.5,"yes","yes","yes",0.5,2,0.89146165208375,1.5,0.734460367031411,-1.5,-0.0744253837831102,0.473684210526316,2.4,"yes",655.889464135,1,0
"MWPF102",0,19,"strawberry","Is it a fruit?","strawberry:nonvisual:yes:1","nomask",-0.5,"nonvisual",-0.5,"yes","yes","yes",0.5,1,-0.664262733764561,3,3.02857694970669,-1.5,-0.0744253837831102,0.125,3.33333333333333,"yes",504.696522141,1,0
"MWPF102",0,20,"deer","Is it an herbivore?","deer:nonvisual:yes:4","nomask",-0.5,"nonvisual",-0.5,"yes","","yes",0.5,1,-0.664262733764561,1.75,1.11681313081062,-1,1.05237307707467,0.5625,3,"yes",1608.01327147,1,0
"MWPF102",0,21,"giraffe","Does it have spots?","giraffe:visual:yes:1","mask",0.5,"visual",0.5,"yes","yes","yes",0.5,2.85714285714286,2.22493969709659,1.85714285714286,1.28067860100171,-1.57142857142857,-0.235396592477078,0.5,2,"yes",1128.34679143,1,0
"MWPF102",0,22,"pig","Does it have legs?","pig:visual:yes:4","mask",0.5,"visual",0.5,"yes","yes","yes",0.5,1.25,-0.275331637302484,2,1.49916589458984,-1.75,-0.637824614211998,0.578947368421053,1.8,"yes",769.085066218,1,0
"MWPF102",0,23,"apple","Is it eaten in pies?","apple:nonvisual:yes:3","nomask",-0.5,"nonvisual",-0.5,"yes","yes","yes",0.5,2.33333333333333,1.41003644736652,1.83333333333333,1.24426405207036,-1.5,-0.0744253837831102,0.235294117647059,1.5,"yes",1580.11041395,1,0
"MWPF102",0,24,"table","Is it found in kitchens?","table:nonvisual:yes:2","mask",0.5,"nonvisual",-0.5,"yes","yes","yes",0.5,1.5,0.113599459159594,0.25,-1.17730345186465,-1.5,-0.0744253837831102,0.6,1.66666666666667,"yes",695.346796303,1,0
"MWPF102",0,25,"apple","Is it black?","apple:visual:no:1","nomask",-0.5,"visual",0.5,"no","no","no",-0.5,1.5,0.113599459159594,0,-1.55965621564386,-2,-1.20122384464089,0.235294117647059,1.42857142857143,"no",1041.65149183,1,0
"MWPF102",0,26,"strawberry","Does it have ears?","strawberry:visual:no:4","mask",0.5,"visual",0.5,"no","no","no",-0.5,1.3,-0.197545418010068,0.9,-0.183186266038699,-1.8,-0.750504460297776,0.125,1,"no",739.187313768,1,0
"MWPF102",0,27,"lion","Does it live in jungles?","lion:nonvisual:yes:4","mask",0.5,"nonvisual",-0.5,"yes","","yes",0.5,2,0.89146165208375,2,1.49916589458984,-0.8,1.50309246141778,0.461538461538462,2.8,"yes",683.796814003,1,0
"MWPF102",0,28,"dog","Does it have legs?","dog:visual:yes:2","mask",0.5,"visual",0.5,"yes","yes","yes",0.5,1.4,-0.041972979425237,0.8,-0.336127371550384,-2,-1.20122384464089,0.642857142857143,1.6,"yes",611.814706179,1,0
"MWPF102",0,29,"donkey","Is it a mammal?","donkey:nonvisual:yes:3","mask",0.5,"nonvisual",-0.5,"yes","","yes",0.5,2,0.89146165208375,2,1.49916589458984,-2,-1.20122384464089,0.5,4,"yes",551.742284093,1,0
"MWPF102",0,30,"pineapple","Does it grow on trees?","pineapple:nonvisual:yes:3","mask",0.5,"nonvisual",-0.5,"yes","","yes",0.5,1.25,-0.275331637302484,2.25,1.88151865836905,-1.25,0.488973846645778,0.3125,2,"yes",940.986152506,1,0
"MWPF102",0,31,"pig","Does it live on farms?","pig:nonvisual:yes:2","mask",0.5,"nonvisual",-0.5,"yes","yes","yes",0.5,1.16666666666667,-0.404975336123176,0.833333333333333,-0.285147003046489,-1.66666666666667,-0.450024870735702,0.578947368421053,1.5,"yes",691.537339706,1,0
"MWPF102",0,32,"lion","Does it roar?","lion:nonvisual:yes:5","nomask",-0.5,"nonvisual",-0.5,"yes","yes","yes",0.5,2,0.89146165208375,2,1.49916589458984,-2,-1.20122384464089,0.461538461538462,4,"yes",593.323503796,1,0
"MWPF102",0,33,"pineapple","Is it tropical?","pineapple:nonvisual:yes:2","mask",0.5,"nonvisual",-0.5,"yes","yes","yes",0.5,1.33333333333333,-0.145687938481791,1.66666666666667,0.989362209550886,-1.66666666666667,-0.450024870735702,0.3125,2.5,"yes",748.810106365,1,0
"MWPF102",0,34,"dog","Is it an animal?","dog:nonvisual:yes:2","mask",0.5,"nonvisual",-0.5,"yes","yes","yes",0.5,1.42857142857143,0.00247628874185779,1.57142857142857,0.843704013825471,-2,-1.20122384464089,0.642857142857143,1,"yes",670.094386092,1,0
"MWPF102",0,35,"strawberry","Is it furniture?","strawberry:nonvisual:no:3","nomask",-0.5,"nonvisual",-0.5,"no","no","no",-0.5,0.4,-1.59769736527355,0.4,-0.947891793597124,-1.8,-0.750504460297776,0.125,1.5,"no",716.816703614,1,0
"MWPF102",0,36,"donkey","Is it like a horse?","donkey:nonvisual:yes:2","nomask",-0.5,"nonvisual",-0.5,"yes","yes","yes",0.5,2.2,1.20260652925341,1.2,0.275637050496356,-1.2,0.601653692731556,0.5,3.25,"yes",820.378924138,1,0
"MWPF102",0,37,"elephant","Is it used in circuses?","elephant:nonvisual:yes:4","nomask",-0.5,"nonvisual",-0.5,"yes","yes","yes",0.5,2,0.89146165208375,1.42857142857143,0.62521672023735,-1.57142857142857,-0.235396592477078,0.666666666666667,1.5,"yes",942.386782379,1,0
"MWPF102",0,38,"pineapple","Does it have skin?","pineapple:visual:yes:3","nomask",-0.5,"visual",0.5,"yes","yes","yes",0.5,2,0.89146165208375,0.75,-0.412597924306227,-0.875,1.33407269228911,0.3125,2.66666666666667,"yes",1110.00479711,1,0
"MWPF102",0,39,"grasshopper","Does it live in grass?","grasshopper:nonvisual:yes:2","mask",0.5,"nonvisual",-0.5,"yes","yes","yes",0.5,1.25,-0.275331637302484,0.5,-0.794950688085439,-1,1.05237307707467,0.666666666666667,1.88888888888889,"yes",1517.86789799,1,0
"MWPF102",0,40,"deer","Does it live in zoos?","deer:nonvisual:no:1","mask",0.5,"nonvisual",-0.5,"no","no","no",-0.5,1.5,0.113599459159594,2.25,1.88151865836905,-1.5,-0.0744253837831102,0.5625,1.6,"yes",NA,0,1
"MWPF102",0,41,"chicken","Is it eaten by frying?","chicken:nonvisual:yes:4","nomask",-0.5,"nonvisual",-0.5,"yes","","yes",0.5,2,0.89146165208375,1.5,0.734460367031411,-1,1.05237307707467,0.555555555555556,2,"yes",1602.72809974,1,0
"MWPF102",0,42,"camel","Does it have legs?","camel:visual:yes:3","nomask",-0.5,"visual",0.5,"yes","yes","yes",0.5,0.666666666666667,-1.18283752904733,1.83333333333333,1.24426405207036,-1.83333333333333,-0.825624357688294,0.461538461538462,1.16666666666667,"yes",678.97498922,1,0
"MWPF102",0,43,"elephant","Does it have ears?","elephant:visual:yes:2","nomask",-0.5,"visual",0.5,"yes","yes","yes",0.5,1.6,0.269171897744426,0.4,-0.947891793597124,-2,-1.20122384464089,0.666666666666667,1,"yes",1623.93873808,1,0
"MWPF102",0,44,"donkey","Does it have a tail?","donkey:visual:yes:3","mask",0.5,"visual",0.5,"yes","","yes",0.5,2.66666666666667,1.92861124264929,2,1.49916589458984,-1,1.05237307707467,0.5,1.75,"yes",1380.52306231,1,0
"MWPF102",0,45,"giraffe","Does it live in grass?","giraffe:nonvisual:no:3","nomask",-0.5,"nonvisual",-0.5,"no","yes","yes",0.5,2,0.89146165208375,2.09090909090909,1.63820326323682,-0.818181818181818,1.46211797193204,0.5,2.83333333333333,"no",NA,0,1
"MWPF102",0,46,"chicken","Does it live in a coop?","chicken:nonvisual:yes:5","mask",0.5,"nonvisual",-0.5,"yes","yes","yes",0.5,1.4,-0.041972979425237,0.6,-0.642009582573754,-1.6,-0.299785075954666,0.555555555555556,2.8,"yes",1041.1409759,1,0
"MWPF102",0,47,"lion","Does it have wings?","lion:visual:no:3","nomask",-0.5,"visual",0.5,"no","no","no",-0.5,1.33333333333333,-0.145687938481791,0,-1.55965621564386,-1.66666666666667,-0.450024870735702,0.461538461538462,2.6,"no",1134.07252787,1,0
"MWPF102",0,48,"chicken","Does it live on a farm?","chicken:nonvisual:yes:2","mask",0.5,"nonvisual",-0.5,"yes","yes","yes",0.5,1.2,-0.353117856594899,0.8,-0.336127371550384,-1.2,0.601653692731556,0.555555555555556,2.16666666666667,"yes",637.55741698,1,0
"MWPF102",0,49,"dog","Does it have a nose?","dog:visual:yes:5","nomask",-0.5,"visual",0.5,"yes","yes","yes",0.5,1.25,-0.275331637302484,0,-1.55965621564386,-2,-1.20122384464089,0.642857142857143,2,"yes",1692.76822545,1,0
"MWPF102",0,50,"elephant","Does it have hooves?","elephant:visual:no:5","nomask",-0.5,"visual",0.5,"no","no","no",-0.5,1,-0.664262733764561,0.166666666666667,-1.30475437312439,-1.83333333333333,-0.825624357688294,0.666666666666667,2.42857142857143,"yes",NA,0,1
"MWPF102",0,51,"chair","Is it found at tables?","chair:nonvisual:yes:5","nomask",-0.5,"nonvisual",-0.5,"yes","yes","yes",0.5,2.16666666666667,1.15074904972513,0.333333333333333,-1.04985253060491,-1.66666666666667,-0.450024870735702,0.466666666666667,3,"yes",762.184276653,1,0
"MWPF102",0,52,"deer","Does it have a lid?","deer:visual:no:3","nomask",-0.5,"visual",0.5,"no","no","no",-0.5,1.4,-0.041972979425237,0.2,-1.25377400462049,-2,-1.20122384464089,0.5625,1,"no",1107.49521491,1,0
"MWPF102",0,53,"camel","Is it beige?","camel:visual:yes:5","mask",0.5,"visual",0.5,"yes","yes","yes",0.5,1.8,0.580316774914088,0.6,-0.642009582573754,-0.8,1.50309246141778,0.461538461538462,1.9,"yes",1209.28137901,1,0
"MWPF102",0,54,"zebra","Does it have stripes?","zebra:visual:yes:1","mask",0.5,"visual",0.5,"yes","yes","yes",0.5,1.75,0.502530555621672,1,-0.0302451605270142,-2,-1.20122384464089,0.538461538461538,2.2,"yes",512.859964278,1,0
"MWPF102",0,55,"strawberry","Does it taste good?","strawberry:nonvisual:yes:4","mask",0.5,"nonvisual",-0.5,"yes","yes","yes",0.5,2.33333333333333,1.41003644736652,2.16666666666667,1.75406773710931,-1.16666666666667,0.676773590122074,0.125,1,"yes",854.914317722,1,0
"MWPF102",0,56,"zebra","Does it have antennae?","zebra:visual:no:2","mask",0.5,"visual",0.5,"no","no","no",-0.5,0,-2.21998711961287,0,-1.55965621564386,-2,-1.20122384464089,0.538461538461538,1.33333333333333,"no",1380.07415476,1,0
"MWPF102",0,57,"tiger","Does it live in India?","tiger:nonvisual:yes:5","nomask",-0.5,"nonvisual",-0.5,"yes","yes","yes",0.5,0.75,-1.05319383022664,1.5,0.734460367031411,-1,1.05237307707467,0.473684210526316,2,"yes",1060.36442047,1,0
"MWPF102",0,58,"chicken","Does it have a beak?","chicken:visual:yes:3","nomask",-0.5,"visual",0.5,"yes","yes","yes",0.5,1.4,-0.041972979425237,1.6,0.887401472543096,-1.2,0.601653692731556,0.555555555555556,1.25,"yes",943.836185616,1,0
"MWPF102",0,59,"apple","Does it have a core?","apple:visual:yes:5","mask",0.5,"visual",0.5,"yes","yes","yes",0.5,0.75,-1.05319383022664,1.25,0.352107603252198,-2,-1.20122384464089,0.235294117647059,3.2,"yes",960.980023781,1,0
"MWPF102",0,60,"chair","Does it have legs?","chair:visual:yes:1","nomask",-0.5,"visual",0.5,"yes","yes","yes",0.5,1.7,0.424744336329256,0.8,-0.336127371550384,-1.5,-0.0744253837831102,0.466666666666667,1.5,"yes",734.685403819,1,0
"MWPF102",0,61,"lion","Does it have fur?","lion:visual:yes:2","nomask",-0.5,"visual",0.5,"yes","yes","yes",0.5,1.28571428571429,-0.219770052093615,0.571428571428571,-0.685707041291378,-1.57142857142857,-0.235396592477078,0.461538461538462,1.71428571428571,"yes",706.699438917,1,0
"MWPF102",0,62,"grasshopper","Does it have antennae?","grasshopper:visual:yes:4","nomask",-0.5,"visual",0.5,"yes","yes","yes",0.5,2.11111111111111,1.06431991717801,1.22222222222222,0.309623962832286,-1,1.05237307707467,0.666666666666667,2.5,"yes",841.869046679,1,0
"MWPF102",1,63,"grasshopper","Is it green?","grasshopper:visual:yes:1","mask",0.5,"visual",0.5,"yes","yes","yes",0.5,2,0.89146165208375,0.625,-0.603774306195833,-1.5,-0.0744253837831102,0.666666666666667,5,"yes",774.487037386,1,0
"MWPF102",1,64,"deer","Is it timid?","deer:nonvisual:yes:5","mask",0.5,"nonvisual",-0.5,"yes","yes","yes",0.5,2.33333333333333,1.41003644736652,1,-0.0302451605270142,-1.33333333333333,0.301174103169482,0.5625,2,"yes",1064.42287791,1,0
"MWPF102",1,65,"pineapple","Is it prickly?","pineapple:nonvisual:yes:5","nomask",-0.5,"nonvisual",-0.5,"yes","","yes",0.5,1.25,-0.275331637302484,0.5,-0.794950688085439,-1.75,-0.637824614211998,0.3125,1.25,"yes",802.401125664,1,0
"MWPF102",1,66,"deer","Does it have antlers?","deer:visual:yes:1","nomask",-0.5,"visual",0.5,"yes","yes","yes",0.5,1.6,0.269171897744426,1,-0.0302451605270142,-0.6,1.95381184576089,0.5625,2,"yes",958.208284748,1,0
"MWPF102",1,67,"dog","Is it a pet?","dog:nonvisual:yes:3","mask",0.5,"nonvisual",-0.5,"yes","yes","yes",0.5,0.666666666666667,-1.18283752904733,0,-1.55965621564386,-1.83333333333333,-0.825624357688294,0.642857142857143,1,"yes",586.620695656,1,0
"MWPF102",1,68,"strawberry","Does it taste sweet?","strawberry:nonvisual:yes:2","mask",0.5,"nonvisual",-0.5,"yes","yes","yes",0.5,1.2,-0.353117856594899,1.6,0.887401472543096,-1.6,-0.299785075954666,0.125,1.42857142857143,"yes",670.232684235,1,0
"MWPF102",1,69,"zebra","Is it red?","zebra:visual:no:1","mask",0.5,"visual",0.5,"no","no","no",-0.5,1.66666666666667,0.37288685680098,0,-1.55965621564386,-2,-1.20122384464089,0.538461538461538,1.8,"no",752.745026024,1,0
"MWPF102",1,70,"camel","Is it brown?","camel:visual:yes:2","mask",0.5,"visual",0.5,"yes","","yes",0.5,1.5,0.113599459159594,1.5,0.734460367031411,-1.25,0.488973846645778,0.461538461538462,2.5,"yes",558.860307676,1,0
"MWPF102",1,71,"pineapple","Is it juicy?","pineapple:nonvisual:yes:1","mask",0.5,"nonvisual",-0.5,"yes","yes","yes",0.5,2.25,1.28039274854583,0.5,-0.794950688085439,-1.25,0.488973846645778,0.3125,1.25,"yes",577.314288181,1,0
"MWPF102",1,72,"chicken","Does it have wings?","chicken:visual:yes:2","nomask",-0.5,"visual",0.5,"yes","yes","yes",0.5,1.25,-0.275331637302484,0,-1.55965621564386,-1.75,-0.637824614211998,0.555555555555556,1.5,"yes",911.239854235,1,0
"MWPF102",1,73,"lion","Does it have teeth?","lion:visual:yes:4","mask",0.5,"visual",0.5,"yes","yes","yes",0.5,1.125,-0.469797185533523,1.125,0.160931221362592,-2,-1.20122384464089,0.461538461538462,1,"yes",767.566995171,1,0
"MWPF102",1,74,"strawberry","Is it small?","strawberry:visual:yes:4","mask",0.5,"visual",0.5,"yes","yes","yes",0.5,1.6,0.269171897744426,0.8,-0.336127371550384,-1.4,0.150934308388445,0.125,2.5,"yes",611.403662188,1,0
"MWPF102",1,75,"apple","Is it round?","apple:visual:yes:4","nomask",-0.5,"visual",0.5,"yes","yes","yes",0.5,3,2.44718603793206,1.5,0.734460367031411,-1.5,-0.0744253837831102,0.235294117647059,1.2,"yes",558.928012731,1,0
"MWPF102",1,76,"chicken","Does it have legs?","chicken:visual:yes:4","mask",0.5,"visual",0.5,"yes","yes","yes",0.5,1.14285714285714,-0.442016392929088,0.428571428571429,-0.9041943348795,-2,-1.20122384464089,0.555555555555556,1.16666666666667,"yes",561.799223826,1,0
"MWPF102",1,77,"giraffe","Does it have long legs?","giraffe:visual:yes:3","mask",0.5,"visual",0.5,"yes","yes","yes",0.5,2,0.89146165208375,1.75,1.11681313081062,-1.75,-0.637824614211998,0.5,1.4,"yes",987.403636507,1,0
"MWPF102",1,78,"tiger","Does it have teeth?","tiger:visual:yes:2","nomask",-0.5,"visual",0.5,"yes","yes","yes",0.5,2.25,1.28039274854583,0.5,-0.794950688085439,-1.25,0.488973846645778,0.473684210526316,3,"yes",536.138978379,1,0
"MWPF102",1,79,"apple","Does it have seeds?","apple:visual:yes:3","nomask",-0.5,"visual",0.5,"yes","yes","yes",0.5,1,-0.664262733764561,1.5,0.734460367031411,-1.66666666666667,-0.450024870735702,0.235294117647059,2,"yes",1303.50991752,1,0
"MWPF102",1,80,"donkey","Is it round?","donkey:visual:no:1","nomask",-0.5,"visual",0.5,"no","no","no",-0.5,2.2,1.20260652925341,1.2,0.275637050496356,-1.4,0.150934308388445,0.5,1.5,"no",1208.92456337,1,0
"MWPF102",1,81,"elephant","Does it have four legs?","elephant:visual:yes:3","nomask",-0.5,"visual",0.5,"yes","yes","yes",0.5,0,-2.21998711961287,0.333333333333333,-1.04985253060491,-2,-1.20122384464089,0.666666666666667,1.8,"yes",562.362363678,1,0
"MWPF102",1,82,"pig","Is it smelly?","pig:nonvisual:yes:4","mask",0.5,"nonvisual",-0.5,"yes","yes","yes",0.5,1,-0.664262733764561,0.333333333333333,-1.04985253060491,-1.83333333333333,-0.825624357688294,0.578947368421053,1.75,"yes",1248.36649332,1,0
"MWPF102",1,83,"giraffe","Does it eat leaves?","giraffe:nonvisual:yes:1","nomask",-0.5,"nonvisual",-0.5,"yes","yes","yes",0.5,1.6,0.269171897744426,2.2,1.80504810561321,-1.2,0.601653692731556,0.5,1.75,"yes",923.102050263,1,0
"MWPF102",1,84,"pineapple","Does it have an inside?","pineapple:visual:yes:2","nomask",-0.5,"visual",0.5,"yes","","yes",0.5,1,-0.664262733764561,0.75,-0.412597924306227,-1.5,-0.0744253837831102,0.3125,1,"yes",719.283609069,1,0
"MWPF102",1,85,"camel","Does it drink water?","camel:nonvisual:yes:2","mask",0.5,"nonvisual",-0.5,"yes","yes","yes",0.5,0.5,-1.44212492668872,0.666666666666667,-0.540048845565964,-1.83333333333333,-0.825624357688294,0.461538461538462,2.33333333333333,"yes",606.163413206,1,0
"MWPF102",1,86,"dog","Does it have hair?","dog:visual:yes:4","nomask",-0.5,"visual",0.5,"yes","yes","yes",0.5,2,0.89146165208375,1,-0.0302451605270142,-1.8,-0.750504460297776,0.642857142857143,2.4,"yes",625.228986144,1,0
"MWPF102",1,87,"grasshopper","Does it taste good?","grasshopper:nonvisual:no:3","mask",0.5,"nonvisual",-0.5,"no","no","no",-0.5,1,-0.664262733764561,0.2,-1.25377400462049,-1.2,0.601653692731556,0.666666666666667,2,"no",1478.16124413,1,0
"MWPF102",1,88,"table","Is it found in dining rooms?","table:nonvisual:yes:3","mask",0.5,"nonvisual",-0.5,"yes","yes","yes",0.5,1.57142857142857,0.224722629577331,0.285714285714286,-1.12268162846762,-1.85714285714286,-0.879281427252951,0.6,2.25,"yes",956.796103274,1,0
"MWPF102",1,89,"lion","Does it have a long neck?","lion:visual:no:5","nomask",-0.5,"visual",0.5,"no","no","no",-0.5,2.16666666666667,1.15074904972513,1.33333333333333,0.479558524511936,-0.833333333333333,1.42797256402726,0.461538461538462,1,"no",1225.58644356,1,0
"MWPF102",1,90,"dog","Does it have a caboose?","dog:visual:no:3","nomask",-0.5,"visual",0.5,"no","no","no",-0.5,0.75,-1.05319383022664,1,-0.0302451605270142,-1.25,0.488973846645778,0.642857142857143,1.66666666666667,"no",1403.32268551,1,0
"MWPF102",1,91,"chair","Is it made of wood?","chair:visual:yes:2","mask",0.5,"visual",0.5,"yes","yes","yes",0.5,2.16666666666667,1.15074904972513,0.5,-0.794950688085439,-1.33333333333333,0.301174103169482,0.466666666666667,1.83333333333333,"yes",619.773107581,1,0
"MWPF102",1,92,"zebra","Is it an animal?","zebra:nonvisual:yes:1","nomask",-0.5,"nonvisual",-0.5,"yes","yes","yes",0.5,1.44444444444444,0.0271703266124658,1.22222222222222,0.309623962832286,-1.88888888888889,-0.950824186672492,0.538461538461538,3.33333333333333,"yes",857.587547391,1,0
"MWPF102",1,93,"grasshopper","Does it fly?","grasshopper:nonvisual:yes:4","mask",0.5,"nonvisual",-0.5,"yes","","yes",0.5,1.71428571428571,0.446968970412804,1.57142857142857,0.843704013825471,-0.285714285714286,2.66208516401435,0.666666666666667,2,"yes",717.492471449,1,0
"MWPF102",1,94,"chair","Does it have a snout?","chair:visual:no:3","mask",0.5,"visual",0.5,"no","no","no",-0.5,0.833333333333333,-0.923550131405946,0.666666666666667,-0.540048845565964,-1.33333333333333,0.301174103169482,0.466666666666667,2.5,"no",1162.06394765,1,0
"MWPF102",1,95,"elephant","Does it live in Africa?","elephant:nonvisual:yes:2","nomask",-0.5,"nonvisual",-0.5,"yes","yes","yes",0.5,1.5,0.113599459159594,1.5,0.734460367031411,-1.5,-0.0744253837831102,0.666666666666667,2.83333333333333,"yes",534.448275401,1,0
"MWPF102",1,96,"pineapple","Is it yellow?","pineapple:visual:yes:1","nomask",-0.5,"visual",0.5,"yes","","yes",0.5,2,0.89146165208375,0,-1.55965621564386,-1.33333333333333,0.301174103169482,0.3125,1,"yes",662.992085505,1,0
"MWPF102",1,97,"strawberry","Does it have green leaves?","strawberry:visual:yes:3","nomask",-0.5,"visual",0.5,"yes","yes","yes",0.5,2,0.89146165208375,0,-1.55965621564386,-1.66666666666667,-0.450024870735702,0.125,2,"yes",1455.41809523,1,0
"MWPF102",1,98,"tiger","Does it have whiskers?","tiger:visual:yes:4","mask",0.5,"visual",0.5,"yes","yes","yes",0.5,2,0.89146165208375,0.857142857142857,-0.248732454115136,-1.42857142857143,0.0865458249108578,0.473684210526316,2.66666666666667,"yes",1025.43595206,1,0
"MWPF102",1,99,"zebra","Does it run fast?","zebra:nonvisual:yes:2","mask",0.5,"nonvisual",-0.5,"yes","yes","yes",0.5,1.57142857142857,0.224722629577331,2,1.49916589458984,-0.714285714285714,1.69625791185054,0.538461538461538,2,"yes",734.369339538,1,0
"MWPF102",1,100,"dog","Does it have four legs?","dog:visual:yes:1","mask",0.5,"visual",0.5,"yes","yes","yes",0.5,1.25,-0.275331637302484,1,-0.0302451605270142,-2,-1.20122384464089,0.642857142857143,1.16666666666667,"yes",603.111227334,1,0
"MWPF102",1,101,"lion","Does it have a tail?","lion:visual:yes:3","mask",0.5,"visual",0.5,"yes","yes","yes",0.5,1.5,0.113599459159594,1,-0.0302451605270142,-2,-1.20122384464089,0.461538461538462,1,"yes",727.73648263,1,0
"MWPF102",1,102,"giraffe","Does it live in zoos?","giraffe:nonvisual:yes:3","nomask",-0.5,"nonvisual",-0.5,"yes","yes","yes",0.5,1.42857142857143,0.00247628874185779,0.571428571428571,-0.685707041291378,-1.85714285714286,-0.879281427252951,0.5,1.5,"yes",688.13379301,1,0
"MWPF102",1,103,"camel","Does it live on a farm?","camel:nonvisual:no:4","nomask",-0.5,"nonvisual",-0.5,"no","no","no",-0.5,1.5,0.113599459159594,1.75,1.11681313081062,-1.5,-0.0744253837831102,0.461538461538462,3,"yes",NA,0,1
"MWPF102",1,104,"tiger","Does it have warts?","tiger:visual:no:5","nomask",-0.5,"visual",0.5,"no","no","no",-0.5,1.6,0.269171897744426,2.2,1.80504810561321,-1.2,0.601653692731556,0.473684210526316,4.25,"no",1761.70424407,1,0
"MWPF102",1,105,"dog","Does it have a tail?","dog:visual:yes:3","mask",0.5,"visual",0.5,"yes","yes","yes",0.5,2,0.89146165208375,1.28571428571429,0.406729426649229,-1.42857142857143,0.0865458249108578,0.642857142857143,1.14285714285714,"yes",1526.39553597,1,0
"MWPF102",1,106,"tiger","Is it orange?","tiger:visual:yes:3","mask",0.5,"visual",0.5,"yes","yes","yes",0.5,1.57142857142857,0.224722629577331,1.57142857142857,0.843704013825471,-1.57142857142857,-0.235396592477078,0.473684210526316,1.75,"yes",541.30414204,1,0
"MWPF102",1,107,"zebra","Does it have a mane?","zebra:visual:yes:4","nomask",-0.5,"visual",0.5,"yes","yes","yes",0.5,1.5,0.113599459159594,1.5,0.734460367031411,-0.5,2.17917153793244,0.538461538461538,2.75,"yes",638.988209364,1,0
"MWPF102",1,108,"chicken","Does it have feathers?","chicken:visual:yes:1","nomask",-0.5,"visual",0.5,"yes","yes","yes",0.5,2.5,1.66932384500791,2.16666666666667,1.75406773710931,-1,1.05237307707467,0.555555555555556,1,"yes",682.699734112,1,0
"MWPF102",1,109,"donkey","Is it furry?","donkey:nonvisual:yes:4","nomask",-0.5,"nonvisual",-0.5,"yes","yes","yes",0.5,2.33333333333333,1.41003644736652,1.44444444444444,0.649493086191586,-1.22222222222222,0.551573761137876,0.5,2,"no",NA,0,1
"MWPF102",1,110,"pig","Is it pink?","pig:visual:yes:1","mask",0.5,"visual",0.5,"yes","yes","yes",0.5,1.71428571428571,0.446968970412804,0.571428571428571,-0.685707041291378,-1.28571428571429,0.408488242298794,0.578947368421053,1,"yes",779.787290376,1,0
"MWPF102",1,111,"table","Is it made of wood?","table:visual:yes:1","mask",0.5,"visual",0.5,"yes","yes","yes",0.5,2,0.89146165208375,2,1.49916589458984,-1,1.05237307707467,0.6,2.5,"yes",602.579854371,1,0
"MWPF102",1,112,"apple","Is it red?","apple:visual:yes:1","nomask",-0.5,"visual",0.5,"yes","","yes",0.5,2.625,1.86378939323894,0.625,-0.603774306195833,-1.375,0.207274231431334,0.235294117647059,1.42857142857143,"yes",528.538676153,1,0
"MWPF102",1,113,"chair","Is it used for sitting on?","chair:nonvisual:yes:1","nomask",-0.5,"nonvisual",-0.5,"yes","yes","yes",0.5,0.75,-1.05319383022664,1,-0.0302451605270142,-1.5,-0.0744253837831102,0.466666666666667,2.42857142857143,"yes",629.061545886,1,0
"MWPF102",1,114,"pig","Does it grow in Hawaii?","pig:nonvisual:no:5","nomask",-0.5,"nonvisual",-0.5,"no","","no",-0.5,1,-0.664262733764561,1.8,1.19328368356647,-1.4,0.150934308388445,0.578947368421053,4.25,"no",1272.10115339,1,0
"MWPF102",1,115,"donkey","Does it lay eggs?","donkey:nonvisual:no:1","nomask",-0.5,"nonvisual",-0.5,"no","no","no",-0.5,0,-2.21998711961287,0.666666666666667,-0.540048845565964,-2,-1.20122384464089,0.5,2.7,"no",1011.94209442,1,0
"MWPF102",1,116,"chair","Does it have a tail?","chair:visual:no:5","mask",0.5,"visual",0.5,"no","no","no",-0.5,3.2,2.75833091510172,1.2,0.275637050496356,-1.8,-0.750504460297776,0.466666666666667,3,"no",1183.23126761,1,0
"MWPF102",1,117,"chicken","Is it a mammal?","chicken:nonvisual:no:2","mask",0.5,"nonvisual",-0.5,"no","no","no",-0.5,1.14285714285714,-0.442016392929088,2.14285714285714,1.71765318817796,-1.57142857142857,-0.235396592477078,0.555555555555556,1.33333333333333,"timeout",NA,NA,NA
"MWPF102",1,118,"deer","Is it fast?","deer:nonvisual:yes:2","nomask",-0.5,"nonvisual",-0.5,"yes","yes","yes",0.5,1.8,0.580316774914088,2,1.49916589458984,-1.4,0.150934308388445,0.5625,2.16666666666667,"yes",916.608454194,1,0
"MWPF102",1,119,"apple","Does it grow on trees?","apple:nonvisual:yes:2","mask",0.5,"nonvisual",-0.5,"yes","yes","yes",0.5,2,0.89146165208375,0.833333333333333,-0.285147003046489,-1.83333333333333,-0.825624357688294,0.235294117647059,2.2,"yes",1141.30799257,1,0
"MWPF102",1,120,"tiger","Does it have large ears?","tiger:visual:no:3","nomask",-0.5,"visual",0.5,"no","no","no",-0.5,1.8,0.580316774914088,1,-0.0302451605270142,-0.2,2.85525061444711,0.473684210526316,1.5,"yes",NA,0,1
"MWPF102",1,121,"lion","Is it a carnivore?","lion:nonvisual:yes:2","nomask",-0.5,"nonvisual",-0.5,"yes","yes","yes",0.5,1.375,-0.0808660890714446,1.5,0.734460367031411,-1.75,-0.637824614211998,0.461538461538462,3.25,"yes",986.320354394,1,0
"MWPF102",1,122,"apple","Does it live in Africa?","apple:nonvisual:no:2","mask",0.5,"nonvisual",-0.5,"no","no","no",-0.5,0.2,-1.90884224244321,1,-0.0302451605270142,-1,1.05237307707467,0.235294117647059,3,"no",864.402020932,1,0
"MWPF102",1,123,"chair","Is it comfortable?","chair:nonvisual:yes:3","mask",0.5,"nonvisual",-0.5,"yes","","yes",0.5,1.25,-0.275331637302484,0,-1.55965621564386,-1.75,-0.637824614211998,0.466666666666667,1.71428571428571,"yes",592.496281839,1,0
"MWPF102",1,124,"elephant","Is it a rodent?","elephant:nonvisual:no:1","mask",0.5,"nonvisual",-0.5,"no","","no",-0.5,2,0.89146165208375,1.66666666666667,0.989362209550886,-1.16666666666667,0.676773590122074,0.666666666666667,3.28571428571429,"no",973.708909645,1,0
"MWPF102",1,125,"deer","Does it have hooves?","deer:visual:yes:4","mask",0.5,"visual",0.5,"yes","yes","yes",0.5,3.33333333333333,2.96576083321483,2.33333333333333,2.00896957962879,-0.333333333333333,2.55477102488503,0.5625,4,"yes",1272.91714464,1,0
"MWPF102",1,126,"pig","Does it have a snout?","pig:visual:yes:3","mask",0.5,"visual",0.5,"yes","yes","yes",0.5,2.75,2.05825494146998,1.25,0.352107603252198,-1.75,-0.637824614211998,0.578947368421053,1.4,"yes",1055.37060538,1,0
"MWPF102",2,127,"apple","Is it green?","apple:visual:yes:2","nomask",-0.5,"visual",0.5,"yes","","yes",0.5,2.33333333333333,1.41003644736652,1,-0.0302451605270142,-1,1.05237307707467,0.235294117647059,2.33333333333333,"yes",807.227121841,1,0
"MWPF102",2,128,"donkey","Does it have legs?","donkey:visual:yes:1","nomask",-0.5,"visual",0.5,"yes","yes","yes",0.5,1,-0.664262733764561,0.857142857142857,-0.248732454115136,-1.71428571428571,-0.557339009865014,0.5,1.28571428571429,"yes",579.304690706,1,0
"MWPF102",2,129,"zebra","Does it travel in herds?","zebra:nonvisual:yes:4","mask",0.5,"nonvisual",-0.5,"yes","yes","yes",0.5,1.33333333333333,-0.145687938481791,2,1.49916589458984,-1,1.05237307707467,0.538461538461538,2.5,"yes",940.374881087,1,0
"MWPF102",2,130,"dog","Does it bark?","dog:nonvisual:yes:1","nomask",-0.5,"nonvisual",-0.5,"yes","yes","yes",0.5,1.41666666666667,-0.0160442396610982,1.33333333333333,0.479558524511936,-1.33333333333333,0.301174103169482,0.642857142857143,1,"yes",482.158734812,1,0
"MWPF102",2,131,"tiger","Does it live in zoos?","tiger:nonvisual:yes:4","nomask",-0.5,"nonvisual",-0.5,"yes","yes","yes",0.5,1.5,0.113599459159594,1.75,1.11681313081062,-1.75,-0.637824614211998,0.473684210526316,3.16666666666667,"yes",658.135926933,1,0
"MWPF102",2,132,"grasshopper","Does it have legs?","grasshopper:visual:yes:2","nomask",-0.5,"visual",0.5,"yes","yes","yes",0.5,1,-0.664262733764561,0.25,-1.17730345186465,-1.5,-0.0744253837831102,0.666666666666667,1.75,"yes",862.215241359,1,0
"MWPF102",2,133,"zebra","Does it live in water?","zebra:nonvisual:no:4","mask",0.5,"nonvisual",-0.5,"no","no","no",-0.5,0.4,-1.59769736527355,1.4,0.581519261519726,-1.8,-0.750504460297776,0.538461538461538,1.83333333333333,"no",1034.58609222,1,0
"MWPF102",2,134,"tiger","Is it an animal?","tiger:nonvisual:yes:2","nomask",-0.5,"nonvisual",-0.5,"yes","yes","yes",0.5,1,-0.664262733764561,1,-0.0302451605270142,-2,-1.20122384464089,0.473684210526316,2,"yes",527.631876641,1,0
"MWPF102",2,135,"lion","Is it grey?","lion:visual:no:1","mask",0.5,"visual",0.5,"no","no","no",-0.5,0.666666666666667,-1.18283752904733,0.777777777777778,-0.370114283886314,-1.44444444444444,0.0507744452010872,0.461538461538462,1.25,"no",1325.04624646,1,0
"MWPF102",2,136,"donkey","Does it have stripes?","donkey:visual:no:3","mask",0.5,"visual",0.5,"no","no","no",-0.5,0.75,-1.05319383022664,0.25,-1.17730345186465,-1.5,-0.0744253837831102,0.5,2,"no",1235.87088537,1,0
"MWPF102",2,137,"camel","Does it have a hump?","camel:visual:yes:1","mask",0.5,"visual",0.5,"yes","yes","yes",0.5,1.6,0.269171897744426,1,-0.0302451605270142,-2,-1.20122384464089,0.461538461538462,NA,"yes",778.6430415,1,0
"MWPF102",2,138,"pineapple","Does it have a tail?","pineapple:visual:no:5","mask",0.5,"visual",0.5,"no","no","no",-0.5,1.25,-0.275331637302484,0.25,-1.17730345186465,-2,-1.20122384464089,0.3125,1.66666666666667,"no",627.607650356,1,0
"MWPF102",2,139,"chicken","Is it orange?","chicken:visual:no:1","nomask",-0.5,"visual",0.5,"no","no","no",-0.5,1.5,0.113599459159594,1.5,0.734460367031411,-0.75,1.61577230750355,0.555555555555556,2.5,"no",1868.33822401,1,0
"MWPF102",2,140,"pineapple","Does it grow in Hawaii?","pineapple:nonvisual:yes:4","nomask",-0.5,"nonvisual",-0.5,"yes","yes","yes",0.5,1.5,0.113599459159594,1.16666666666667,0.224656681992461,-1.66666666666667,-0.450024870735702,0.3125,3,"yes",717.480598949,1,0
"MWPF102",2,141,"strawberry","Does it have seeds?","strawberry:visual:yes:2","nomask",-0.5,"visual",0.5,"yes","yes","yes",0.5,1,-0.664262733764561,0.857142857142857,-0.248732454115136,-1.57142857142857,-0.235396592477078,0.125,1.66666666666667,"yes",647.110258287,1,0
"MWPF102",2,142,"apple","Is it nutritious?","apple:nonvisual:yes:4","nomask",-0.5,"nonvisual",-0.5,"yes","yes","yes",0.5,0.625,-1.24765937845768,2.25,1.88151865836905,-1.75,-0.637824614211998,0.235294117647059,2.9,"yes",683.361062489,1,0
"MWPF102",2,143,"camel","Is it a mammal?","camel:nonvisual:yes:4","mask",0.5,"nonvisual",-0.5,"yes","yes","yes",0.5,0.5,-1.44212492668872,2,1.49916589458984,-1.5,-0.0744253837831102,0.461538461538462,2.5,"yes",568.768360186,1,0
"MWPF102",2,144,"deer","Does it have a white tail?","deer:visual:yes:5","mask",0.5,"visual",0.5,"yes","yes","yes",0.5,2,0.89146165208375,1.75,1.11681313081062,-1,1.05237307707467,0.5625,1.25,"yes",1155.48788605,1,0
"MWPF102",2,145,"camel","Is it graceful?","camel:nonvisual:no:2","mask",0.5,"nonvisual",-0.5,"no","no","no",-0.5,2,0.89146165208375,1,-0.0302451605270142,-1,1.05237307707467,0.461538461538462,2.33333333333333,"no",1101.45566036,1,0
"MWPF102",2,146,"deer","Does it have eyes?","deer:visual:yes:3","mask",0.5,"visual",0.5,"yes","yes","yes",0.5,2.16666666666667,1.15074904972513,0.833333333333333,-0.285147003046489,-1.83333333333333,-0.825624357688294,0.5625,2.14285714285714,"yes",746.270361706,1,0
"MWPF102",2,147,"pineapple","Does it have legs?","pineapple:visual:no:4","nomask",-0.5,"visual",0.5,"no","no","no",-0.5,0,-2.21998711961287,0,-1.55965621564386,-2,-1.20122384464089,0.3125,1.8,"no",833.57853716,1,0
"MWPF102",2,148,"zebra","Is it used for eating on?","zebra:nonvisual:no:2","nomask",-0.5,"nonvisual",-0.5,"no","no","no",-0.5,1.8,0.580316774914088,0.6,-0.642009582573754,-1.2,0.601653692731556,0.538461538461538,1.5,"no",1027.17735374,1,0
"MWPF102",2,149,"deer","Does it have four legs?","deer:visual:yes:2","nomask",-0.5,"visual",0.5,"yes","yes","yes",0.5,1,-0.664262733764561,0,-1.55965621564386,-1.75,-0.637824614211998,0.5625,2.5,"yes",925.681904599,1,0
"MWPF102",2,150,"pig","Does it have whiskers?","pig:visual:no:3","mask",0.5,"visual",0.5,"no","no","no",-0.5,2.75,2.05825494146998,1.5,0.734460367031411,-1.5,-0.0744253837831102,0.578947368421053,1.9,"no",863.680046692,1,0
"MWPF102",2,151,"chicken","Is it worn for the rain?","chicken:nonvisual:no:4","mask",0.5,"nonvisual",-0.5,"no","no","no",-0.5,0.666666666666667,-1.18283752904733,0.666666666666667,-0.540048845565964,-2,-1.20122384464089,0.555555555555556,1.66666666666667,"no",1721.48579074,1,0
"MWPF102",2,152,"strawberry","Is it red?","strawberry:visual:yes:1","nomask",-0.5,"visual",0.5,"yes","yes","yes",0.5,1.66666666666667,0.37288685680098,0,-1.55965621564386,-1.33333333333333,0.301174103169482,0.125,1,"yes",622.523989587,1,0
"MWPF102",2,153,"lion","Does it waddle?","lion:nonvisual:no:3","nomask",-0.5,"nonvisual",-0.5,"no","no","no",-0.5,1.75,0.502530555621672,0.75,-0.412597924306227,-1.5,-0.0744253837831102,0.461538461538462,1.33333333333333,"no",650.127147674,1,0
"MWPF102",2,154,"pineapple","Does it have a core?","pineapple:visual:yes:5","nomask",-0.5,"visual",0.5,"yes","yes","yes",0.5,1.5,0.113599459159594,2,1.49916589458984,0,3.30596999879022,0.3125,1.8,"yes",1036.8254956,1,0
"MWPF102",2,155,"apple","Is it used for cider?","apple:nonvisual:yes:5","mask",0.5,"nonvisual",-0.5,"yes","yes","yes",0.5,0.6,-1.28655248810389,0.6,-0.642009582573754,-1.8,-0.750504460297776,0.235294117647059,2.25,"yes",1380.10271289,1,0
"MWPF102",2,156,"elephant","Does it eat peanuts?","elephant:nonvisual:yes:5","mask",0.5,"nonvisual",-0.5,"yes","yes","yes",0.5,1.8,0.580316774914088,1.6,0.887401472543096,-1.4,0.150934308388445,0.666666666666667,2.4,"yes",994.272659125,1,0
"MWPF102",2,157,"dog","Is it used for protection?","dog:nonvisual:yes:4","nomask",-0.5,"nonvisual",-0.5,"yes","yes","yes",0.5,1.16666666666667,-0.404975336123176,0.666666666666667,-0.540048845565964,-1.83333333333333,-0.825624357688294,0.642857142857143,2.4,"no",NA,0,1
"MWPF102",2,158,"elephant","Does it have large ears?","elephant:visual:yes:5","mask",0.5,"visual",0.5,"yes","yes","yes",0.5,1.66666666666667,0.37288685680098,0.666666666666667,-0.540048845565964,-1.5,-0.0744253837831102,0.666666666666667,1.25,"yes",776.615096314,1,0
"MWPF102",2,159,"giraffe","Is it eaten by frying?","giraffe:nonvisual:no:1","nomask",-0.5,"nonvisual",-0.5,"no","no","no",-0.5,1,-0.664262733764561,0.8,-0.336127371550384,-1.4,0.150934308388445,0.5,3.33333333333333,"no",871.913761017,1,0
"MWPF102",2,160,"camel","Is it used by riding?","camel:nonvisual:yes:3","mask",0.5,"nonvisual",-0.5,"yes","yes","yes",0.5,0.857142857142857,-0.886509074600034,0.857142857142857,-0.248732454115136,-1.57142857142857,-0.235396592477078,0.461538461538462,2,"yes",1341.93402441,1,0
"MWPF102",2,161,"table","Is it furniture?","table:nonvisual:yes:4","nomask",-0.5,"nonvisual",-0.5,"yes","yes","yes",0.5,1,-0.664262733764561,0.5,-0.794950688085439,-1.5,-0.0744253837831102,0.6,2.42857142857143,"yes",560.492290126,1,0
"MWPF102",2,162,"donkey","Is it an animal?","donkey:nonvisual:yes:1","nomask",-0.5,"nonvisual",-0.5,"yes","yes","yes",0.5,2,0.89146165208375,2.33333333333333,2.00896957962879,-1.66666666666667,-0.450024870735702,0.5,1,"yes",528.173517669,1,0
"MWPF102",2,163,"table","Is it used for eating on?","table:nonvisual:yes:1","mask",0.5,"nonvisual",-0.5,"yes","yes","yes",0.5,2,0.89146165208375,0,-1.55965621564386,-2,-1.20122384464089,0.6,2.75,"yes",700.802353967,1,0
"MWPF102",2,164,"apple","Is it a fruit?","apple:nonvisual:yes:1","nomask",-0.5,"nonvisual",-0.5,"yes","yes","yes",0.5,1.14285714285714,-0.442016392929088,1,-0.0302451605270142,-1.85714285714286,-0.879281427252951,0.235294117647059,3.6,"yes",581.25594625,1,0
"MWPF102",2,165,"donkey","Does it have four legs?","donkey:visual:yes:2","mask",0.5,"visual",0.5,"yes","yes","yes",0.5,2,0.89146165208375,0.25,-1.17730345186465,-2,-1.20122384464089,0.5,5,"yes",771.716902673,1,0
"MWPF102",2,166,"chair","Does it have armrests?","chair:visual:yes:3","nomask",-0.5,"visual",0.5,"yes","yes","yes",0.5,1.5,0.113599459159594,0.5,-0.794950688085439,-1.75,-0.637824614211998,0.466666666666667,4.25,"yes",869.998443755,1,0
"MWPF102",2,167,"table","Is it flat?","table:visual:yes:4","nomask",-0.5,"visual",0.5,"yes","yes","yes",0.5,2.14285714285714,1.11370799291922,1.71428571428571,1.06219130741359,-1.28571428571429,0.408488242298794,0.6,1,"yes",751.381297014,1,0
"MWPF102",2,168,"elephant","Is it grey?","elephant:visual:yes:1","mask",0.5,"visual",0.5,"yes","yes","yes",0.5,1.25,-0.275331637302484,1.25,0.352107603252198,-1.75,-0.637824614211998,0.666666666666667,1.5,"yes",555.237601686,1,0
"MWPF102",2,169,"giraffe","Is it brown?","giraffe:visual:yes:4","mask",0.5,"visual",0.5,"yes","yes","yes",0.5,3.42857142857143,3.11392506043848,3,3.02857694970669,-0.428571428571429,2.34014274662641,0.5,1,"yes",474.704752676,1,0
"MWPF102",2,170,"chair","Is it used for relaxing?","chair:nonvisual:yes:4","mask",0.5,"nonvisual",-0.5,"yes","yes","yes",0.5,0.6,-1.28655248810389,0,-1.55965621564386,-2,-1.20122384464089,0.466666666666667,3.33333333333333,"yes",671.627859236,1,0
"MWPF102",2,171,"giraffe","Does it live in Africa?","giraffe:nonvisual:yes:2","nomask",-0.5,"nonvisual",-0.5,"yes","yes","yes",0.5,2,0.89146165208375,1.83333333333333,1.24426405207036,-1.16666666666667,0.676773590122074,0.5,3.25,"yes",579.640970274,1,0
"MWPF102",2,172,"chair","Does it have a cushion?","chair:visual:yes:5","nomask",-0.5,"visual",0.5,"yes","","yes",0.5,2,0.89146165208375,0.75,-0.412597924306227,-1.25,0.488973846645778,0.466666666666667,2.16666666666667,"yes",725.868013513,1,0
"MWPF102",2,173,"pig","Does it like mud?","pig:nonvisual:yes:5","mask",0.5,"nonvisual",-0.5,"yes","yes","yes",0.5,2.66666666666667,1.92861124264929,1.66666666666667,0.989362209550886,-1.66666666666667,-0.450024870735702,0.578947368421053,2.5,"yes",641.759948398,1,0
"MWPF102",2,174,"chicken","Is it used for holding liquids?","chicken:nonvisual:no:1","nomask",-0.5,"nonvisual",-0.5,"no","no","no",-0.5,0.75,-1.05319383022664,0,-1.55965621564386,-1.75,-0.637824614211998,0.555555555555556,2.5,"no",1300.9977683,1,0
"MWPF102",2,175,"grasshopper","Does it have long legs?","grasshopper:visual:yes:3","mask",0.5,"visual",0.5,"yes","","yes",0.5,1,-0.664262733764561,1.2,0.275637050496356,-1.2,0.601653692731556,0.666666666666667,1.83333333333333,"yes",544.304666691,1,0
"MWPF102",2,176,"tiger","Is it used for relaxing?","tiger:nonvisual:no:5","mask",0.5,"nonvisual",-0.5,"no","no","no",-0.5,0.333333333333333,-1.7014123243301,0.333333333333333,-1.04985253060491,-1.83333333333333,-0.825624357688294,0.473684210526316,3,"no",788.355679717,1,0
"MWPF102",2,177,"chicken","Does it eat grain?","chicken:nonvisual:yes:3","nomask",-0.5,"nonvisual",-0.5,"yes","yes","yes",0.5,1.25,-0.275331637302484,0.75,-0.412597924306227,-1,1.05237307707467,0.555555555555556,3,"yes",950.129554258,1,0
"MWPF102",2,178,"tiger","Is it a carnivore?","tiger:nonvisual:yes:1","nomask",-0.5,"nonvisual",-0.5,"yes","yes","yes",0.5,1.5,0.113599459159594,2.25,1.88151865836905,-0.75,1.61577230750355,0.473684210526316,2.25,"yes",1470.20573058,1,0
"MWPF102",2,179,"grasshopper","Is it an insect?","grasshopper:nonvisual:yes:1","nomask",-0.5,"nonvisual",-0.5,"yes","yes","yes",0.5,1.5,0.113599459159594,1.5,0.734460367031411,-1.33333333333333,0.301174103169482,0.666666666666667,2.5,"yes",786.488173238,1,0
"MWPF102",2,180,"dog","Does it chase cats?","dog:nonvisual:yes:5","nomask",-0.5,"nonvisual",-0.5,"yes","yes","yes",0.5,1.4,-0.041972979425237,1.2,0.275637050496356,-1,1.05237307707467,0.642857142857143,2,"yes",614.537992689,1,0
"MWPF102",2,181,"apple","Does it have eyes?","apple:visual:no:5","mask",0.5,"visual",0.5,"no","no","no",-0.5,0,-2.21998711961287,0.4,-0.947891793597124,-1.8,-0.750504460297776,0.235294117647059,1,"no",671.520044387,1,0
"MWPF102",2,182,"tiger","Does it live in Africa?","tiger:nonvisual:yes:3","mask",0.5,"nonvisual",-0.5,"yes","","yes",0.5,1.8,0.580316774914088,1.8,1.19328368356647,-0.8,1.50309246141778,0.473684210526316,3,"yes",834.032257786,1,0
"MWPF102",2,183,"chicken","Does it lay eggs?","chicken:nonvisual:yes:1","nomask",-0.5,"nonvisual",-0.5,"yes","yes","yes",0.5,2.83333333333333,2.18789864029068,2.5,2.26387142214826,-1.33333333333333,0.301174103169482,0.555555555555556,2.16666666666667,"yes",597.673959623,1,0
"MWPF102",2,184,"camel","Does it eat?","camel:nonvisual:no:3","nomask",-0.5,"nonvisual",-0.5,"no","yes","yes",0.5,1.625,0.308065007390633,1.25,0.352107603252198,-1.625,-0.356124998997554,0.461538461538462,5,"yes",511.059200275,1,0
"MWPF102",2,185,"lion","Does it have a mane?","lion:visual:yes:1","nomask",-0.5,"visual",0.5,"yes","yes","yes",0.5,0.8,-0.975407610934224,1.6,0.887401472543096,-1.6,-0.299785075954666,0.461538461538462,2.5,"yes",795.981973119,1,0
"MWPF102",2,186,"deer","Is it a mammal?","deer:nonvisual:yes:3","mask",0.5,"nonvisual",-0.5,"yes","yes","yes",0.5,1.66666666666667,0.37288685680098,1.33333333333333,0.479558524511936,-1.16666666666667,0.676773590122074,0.5625,3.28571428571429,"yes",582.596251217,1,0
"MWPF102",2,187,"zebra","Does it have hooves?","zebra:visual:yes:3","nomask",-0.5,"visual",0.5,"yes","yes","yes",0.5,2,0.89146165208375,0.5,-0.794950688085439,-1,1.05237307707467,0.538461538461538,1.8,"yes",1478.09257638,1,0
"MWPF102",2,188,"pig","Does it live in India?","pig:nonvisual:no:3","mask",0.5,"nonvisual",-0.5,"no","","no",-0.5,1,-0.664262733764561,1.4,0.581519261519726,-0.2,2.85525061444711,0.578947368421053,3.2,"no",874.022888194,1,0
"MWPF102",2,189,"lion","Is it a mammal?","lion:nonvisual:yes:3","nomask",-0.5,"nonvisual",-0.5,"yes","yes","yes",0.5,0.666666666666667,-1.18283752904733,1.66666666666667,0.989362209550886,-1.5,-0.0744253837831102,0.461538461538462,3.83333333333333,"yes",656.160926446,1,0
"MWPF102",2,190,"deer","Is it hunted by people?","deer:nonvisual:yes:1","mask",0.5,"nonvisual",-0.5,"yes","yes","yes",0.5,1,-0.664262733764561,0.8,-0.336127371550384,-2,-1.20122384464089,0.5625,1.66666666666667,"yes",889.438480546,1,0
"MWPF102",2,191,"pig","Is it an animal?","pig:nonvisual:yes:1","mask",0.5,"nonvisual",-0.5,"yes","yes","yes",0.5,1,-0.664262733764561,0.375,-0.986127069975045,-1.75,-0.637824614211998,0.578947368421053,2.6,"yes",534.403031634,1,0
"MWPF103",0,0,"lion","Does it have fur?","lion:visual:yes:2","nomask",-0.5,"visual",0.5,"yes","yes","yes",0.5,1.28571428571429,-0.219770052093615,0.571428571428571,-0.685707041291378,-1.57142857142857,-0.235396592477078,0.461538461538462,1.71428571428571,"yes",647.484739718,1,0
"MWPF103",0,1,"mouse","Does it eat cheese?","mouse:nonvisual:yes:5","nomask",-0.5,"nonvisual",-0.5,"yes","yes","yes",0.5,0.75,-1.05319383022664,1.75,1.11681313081062,-1.25,0.488973846645778,0.470588235294118,2.25,"yes",717.951266211,1,0
"MWPF103",0,2,"chicken","Does it lay eggs?","chicken:nonvisual:yes:1","nomask",-0.5,"nonvisual",-0.5,"yes","yes","yes",0.5,2.83333333333333,2.18789864029068,2.5,2.26387142214826,-1.33333333333333,0.301174103169482,0.555555555555556,2.16666666666667,"yes",591.974270763,1,0
"MWPF103",0,3,"zebra","Does it live in water?","zebra:nonvisual:no:4","mask",0.5,"nonvisual",-0.5,"no","no","no",-0.5,0.4,-1.59769736527355,1.4,0.581519261519726,-1.8,-0.750504460297776,0.538461538461538,1.83333333333333,"yes",NA,0,1
"MWPF103",0,4,"swan","Does it have feathers?","swan:visual:yes:3","mask",0.5,"visual",0.5,"yes","yes","yes",0.5,1,-0.664262733764561,0.333333333333333,-1.04985253060491,-1.83333333333333,-0.825624357688294,0.533333333333333,2.6,"yes",996.397314826,1,0
"MWPF103",0,5,"donkey","Is it an animal?","donkey:nonvisual:yes:1","mask",0.5,"nonvisual",-0.5,"yes","yes","yes",0.5,2,0.89146165208375,2.33333333333333,2.00896957962879,-1.66666666666667,-0.450024870735702,0.5,1,"yes",778.182191541,1,0
"MWPF103",0,6,"chair","Is it furniture?","chair:nonvisual:yes:2","mask",0.5,"nonvisual",-0.5,"yes","yes","yes",0.5,0.6,-1.28655248810389,0.4,-0.947891793597124,-1.8,-0.750504460297776,0.466666666666667,2,"yes",1037.46147122,1,0
"MWPF103",0,7,"mouse","Is it used in experiments?","mouse:nonvisual:yes:4","nomask",-0.5,"nonvisual",-0.5,"yes","yes","yes",0.5,0.666666666666667,-1.18283752904733,2.66666666666667,2.51877326466773,-1.33333333333333,0.301174103169482,0.470588235294118,2.5,"yes",1242.29121092,1,0
"MWPF103",0,8,"strawberry","Does it taste sweet?","strawberry:nonvisual:yes:2","mask",0.5,"nonvisual",-0.5,"yes","yes","yes",0.5,1.2,-0.353117856594899,1.6,0.887401472543096,-1.6,-0.299785075954666,0.125,1.42857142857143,"yes",941.726274381,1,0
"MWPF103",0,9,"apple","Does it have pockets?","apple:visual:no:2","mask",0.5,"visual",0.5,"no","no","no",-0.5,1,-0.664262733764561,0.714285714285714,-0.467219747703257,-2,-1.20122384464089,0.235294117647059,1.2,"no",1214.13716534,1,0
"MWPF103",0,10,"chair","Does it have legs?","chair:visual:yes:1","nomask",-0.5,"visual",0.5,"yes","yes","yes",0.5,1.7,0.424744336329256,0.8,-0.336127371550384,-1.5,-0.0744253837831102,0.466666666666667,1.5,"yes",1168.54581563,1,0
"MWPF103",0,11,"penguin","Does it have feet?","penguin:visual:yes:3","mask",0.5,"visual",0.5,"yes","yes","yes",0.5,2.25,1.28039274854583,1.75,1.11681313081062,-1.75,-0.637824614211998,0.5,1.33333333333333,"yes",883.392772987,1,0
