"subj_id","block_ix","trial_ix","cue","question","question_id","mask_type","mask_c","feat_type","feat_c","truth_coded","truth_normed","truth","truth_c","imagery_mean","imagery_z","facts_mean","facts_z","diff_mean","diff_z","prop_visual","senses_mean","response","rt","is_correct","is_error"
"MWPF201",0,0,"chicken","Is it used for making jam?","chicken:nonvisual:no:3","nomask",-0.5,"nonvisual",-0.5,"no","no","no",-0.5,0.5,-1.44212492668872,0.25,-1.17730345186465,-2,-1.20122384464089,0.555555555555556,2.33333333333333,"no",308.576862968,1,0
"MWPF201",0,1,"lion","Is it a mammal?","lion:nonvisual:yes:3","mask",0.5,"nonvisual",-0.5,"yes","yes","yes",0.5,0.666666666666667,-1.18283752904733,1.66666666666667,0.989362209550886,-1.5,-0.0744253837831102,0.461538461538462,3.83333333333333,"yes",280.429882288,1,0
"MWPF201",0,2,"donkey","Does it have hooves?","donkey:visual:yes:4","mask",0.5,"visual",0.5,"yes","yes","yes",0.5,2.57142857142857,1.78044701542564,1.57142857142857,0.843704013825471,-0.857142857142857,1.3743154944626,0.5,2,"yes",176.482262992,1,0
"MWPF201",0,3,"penguin","Is it red?","penguin:visual:no:1","mask",0.5,"visual",0.5,"no","no","no",-0.5,1.28571428571429,-0.219770052093615,0.571428571428571,-0.685707041291378,-1.85714285714286,-0.879281427252951,0.5,1,"no",220.810267754,1,0
"MWPF201",0,4,"table","Is it round?","table:visual:yes:2","nomask",-0.5,"visual",0.5,"yes","","yes",0.5,1.83333333333333,0.632174254442365,0.833333333333333,-0.285147003046489,-1.66666666666667,-0.450024870735702,0.6,1,"yes",418.384244927,1,0
"MWPF201",0,5,"penguin","Does it live in the Arctic?","penguin:nonvisual:yes:3","mask",0.5,"nonvisual",-0.5,"yes","","yes",0.5,1.57142857142857,0.224722629577331,2.28571428571429,1.93614048176608,-0.714285714285714,1.69625791185054,0.5,2,"yes",48.3270549157,1,0
"MWPF201",0,6,"pig","Does it live on farms?","pig:nonvisual:yes:2","nomask",-0.5,"nonvisual",-0.5,"yes","yes","yes",0.5,1.16666666666667,-0.404975336123176,0.833333333333333,-0.285147003046489,-1.66666666666667,-0.450024870735702,0.578947368421053,1.5,"yes",259.395486792,1,0
"MWPF201",0,7,"giraffe","Does it live in grass?","giraffe:nonvisual:no:3","mask",0.5,"nonvisual",-0.5,"no","yes","yes",0.5,2,0.89146165208375,2.09090909090909,1.63820326323682,-0.818181818181818,1.46211797193204,0.5,2.83333333333333,"yes",NA,0,1
"MWPF201",0,8,"rabbit","Does it make noises?","rabbit:nonvisual:no:2","nomask",-0.5,"nonvisual",-0.5,"no","yes","yes",0.5,1,-0.664262733764561,1.83333333333333,1.24426405207036,-0.833333333333333,1.42797256402726,0.666666666666667,1.4,"yes",NA,0,1
"MWPF201",0,9,"penguin","Is it a bird?","penguin:nonvisual:yes:1","nomask",-0.5,"nonvisual",-0.5,"yes","yes","yes",0.5,1.5,0.113599459159594,2,1.49916589458984,-1.5,-0.0744253837831102,0.5,1,"no",NA,0,1
"MWPF201",0,10,"mouse","Does it eat?","mouse:nonvisual:yes:3","mask",0.5,"nonvisual",-0.5,"yes","yes","yes",0.5,1.33333333333333,-0.145687938481791,0.833333333333333,-0.285147003046489,-1.66666666666667,-0.450024870735702,0.470588235294118,2.33333333333333,"yes",286.611721327,1,0
"MWPF201",0,11,"raccoon","Is it used for protection?","raccoon:nonvisual:no:2","nomask",-0.5,"nonvisual",-0.5,"no","no","no",-0.5,1,-0.664262733764561,0.5,-0.794950688085439,-1.5,-0.0744253837831102,0.545454545454545,3.6,"no",429.164055793,1,0
"MWPF201",0,12,"strawberry","Does it have seeds?","strawberry:visual:yes:2","mask",0.5,"visual",0.5,"yes","yes","yes",0.5,1,-0.664262733764561,0.857142857142857,-0.248732454115136,-1.57142857142857,-0.235396592477078,0.125,1.66666666666667,"yes",430.454700894,1,0
"MWPF201",0,13,"bottle","Is it a container?","bottle:nonvisual:yes:3","nomask",-0.5,"nonvisual",-0.5,"yes","yes","yes",0.5,2,0.89146165208375,1.66666666666667,0.989362209550886,-0.833333333333333,1.42797256402726,0.357142857142857,1.33333333333333,"yes",541.899759381,1,0
"MWPF201",0,14,"raccoon","Does it eat garbage?","raccoon:nonvisual:yes:1","mask",0.5,"nonvisual",-0.5,"yes","yes","yes",0.5,1,-0.664262733764561,1,-0.0302451605270142,-2,-1.20122384464089,0.545454545454545,3.2,"yes",380.490749289,1,0
"MWPF201",0,15,"grasshopper","Is it found in summer?","grasshopper:nonvisual:yes:3","nomask",-0.5,"nonvisual",-0.5,"yes","yes","yes",0.5,2,0.89146165208375,2.25,1.88151865836905,-1.25,0.488973846645778,0.666666666666667,2.2,"yes",313.149489841,1,0
"MWPF201",0,16,"pig","Is it smelly?","pig:nonvisual:yes:4","nomask",-0.5,"nonvisual",-0.5,"yes","yes","yes",0.5,1,-0.664262733764561,0.333333333333333,-1.04985253060491,-1.83333333333333,-0.825624357688294,0.578947368421053,1.75,"yes",440.123231238,1,0
"MWPF201",0,17,"dog","Is it used for protection?","dog:nonvisual:yes:4","mask",0.5,"nonvisual",-0.5,"yes","yes","yes",0.5,1.16666666666667,-0.404975336123176,0.666666666666667,-0.540048845565964,-1.83333333333333,-0.825624357688294,0.642857142857143,2.4,"yes",554.032603017,1,0
"MWPF201",0,18,"table","Is it healthy?","table:nonvisual:no:3","nomask",-0.5,"nonvisual",-0.5,"no","no","no",-0.5,1.4,-0.041972979425237,0.4,-0.947891793597124,-1.8,-0.750504460297776,0.6,4,"no",233.911680116,1,0
"MWPF201",0,19,"penguin","Is it black?","penguin:visual:yes:1","nomask",-0.5,"visual",0.5,"yes","yes","yes",0.5,2,0.89146165208375,1.2,0.275637050496356,-1,1.05237307707467,0.5,1.8,"yes",585.803138034,1,0
"MWPF201",0,20,"swan","Does it have wings?","swan:visual:yes:4","nomask",-0.5,"visual",0.5,"yes","yes","yes",0.5,2,0.89146165208375,1.83333333333333,1.24426405207036,-1.33333333333333,0.301174103169482,0.533333333333333,1,"yes",271.102924453,1,0
"MWPF201",0,21,"mouse","Is it used in experiments?","mouse:nonvisual:yes:4","mask",0.5,"nonvisual",-0.5,"yes","yes","yes",0.5,0.666666666666667,-1.18283752904733,2.66666666666667,2.51877326466773,-1.33333333333333,0.301174103169482,0.470588235294118,2.5,"yes",332.341499219,1,0
"MWPF201",0,22,"bottle","Does it have a neck?","bottle:visual:yes:4","nomask",-0.5,"visual",0.5,"yes","yes","yes",0.5,2.2,1.20260652925341,1.4,0.581519261519726,-1.4,0.150934308388445,0.357142857142857,1.88888888888889,"yes",361.110797006,1,0
"MWPF201",0,23,"dog","Is it an animal?","dog:nonvisual:yes:2","mask",0.5,"nonvisual",-0.5,"yes","yes","yes",0.5,1.42857142857143,0.00247628874185779,1.57142857142857,0.843704013825471,-2,-1.20122384464089,0.642857142857143,1,"yes",307.074099808,1,0
"MWPF201",0,24,"chicken","Is it comfortable?","chicken:nonvisual:no:5","nomask",-0.5,"nonvisual",-0.5,"no","","no",-0.5,1.4,-0.041972979425237,0.6,-0.642009582573754,-0.6,1.95381184576089,0.555555555555556,4,"no",154.338146676,1,0
"MWPF201",0,25,"pineapple","Does it grow on trees?","pineapple:nonvisual:yes:3","mask",0.5,"nonvisual",-0.5,"yes","","yes",0.5,1.25,-0.275331637302484,2.25,1.88151865836905,-1.25,0.488973846645778,0.3125,2,"yes",380.552357092,1,0
"MWPF201",0,26,"deer","Does it have hooves?","deer:visual:yes:4","nomask",-0.5,"visual",0.5,"yes","yes","yes",0.5,3.33333333333333,2.96576083321483,2.33333333333333,2.00896957962879,-0.333333333333333,2.55477102488503,0.5625,4,"yes",138.683128695,1,0
"MWPF201",0,27,"swan","Does it have feathers?","swan:visual:yes:3","mask",0.5,"visual",0.5,"yes","yes","yes",0.5,1,-0.664262733764561,0.333333333333333,-1.04985253060491,-1.83333333333333,-0.825624357688294,0.533333333333333,2.6,"yes",93.6942044355,1,0
"MWPF201",0,28,"raccoon","Is it nocturnal?","raccoon:nonvisual:yes:3","nomask",-0.5,"nonvisual",-0.5,"yes","yes","yes",0.5,1.6,0.269171897744426,2,1.49916589458984,-0.8,1.50309246141778,0.545454545454545,NA,"yes",237.165977334,1,0
"MWPF201",0,29,"bottle","Is it a carnivore?","bottle:nonvisual:no:3","mask",0.5,"nonvisual",-0.5,"no","no","no",-0.5,1,-0.664262733764561,0.8,-0.336127371550384,-2,-1.20122384464089,0.357142857142857,3.5,"no",306.855742936,1,0
"MWPF201",0,30,"donkey","Is it an animal?","donkey:nonvisual:yes:1","nomask",-0.5,"nonvisual",-0.5,"yes","yes","yes",0.5,2,0.89146165208375,2.33333333333333,2.00896957962879,-1.66666666666667,-0.450024870735702,0.5,1,"yes",143.244057865,1,0
"MWPF201",0,31,"rabbit","Does it have whiskers?","rabbit:visual:yes:3","mask",0.5,"visual",0.5,"yes","yes","yes",0.5,2.33333333333333,1.41003644736652,0.166666666666667,-1.30475437312439,-0.833333333333333,1.42797256402726,0.666666666666667,1.85714285714286,"yes",346.907852218,1,0
"MWPF201",0,32,"bottle","Is it used for holding liquids?","bottle:nonvisual:yes:2","nomask",-0.5,"nonvisual",-0.5,"yes","yes","yes",0.5,1.4,-0.041972979425237,0.8,-0.336127371550384,-1.6,-0.299785075954666,0.357142857142857,1.25,"yes",372.370213183,1,0
"MWPF201",0,33,"mouse","Does it have a tail?","mouse:visual:yes:1","nomask",-0.5,"visual",0.5,"yes","yes","yes",0.5,1.6,0.269171897744426,0.2,-1.25377400462049,-1.8,-0.750504460297776,0.470588235294118,1.25,"yes",210.96315264,1,0
"MWPF201",0,34,"bottle","Does it have feet?","bottle:visual:no:1","mask",0.5,"visual",0.5,"no","no","no",-0.5,0.4,-1.59769736527355,0.4,-0.947891793597124,-1.2,0.601653692731556,0.357142857142857,1.6,"no",293.176464707,1,0
"MWPF201",0,35,"table","Is it used for eating on?","table:nonvisual:yes:1","nomask",-0.5,"nonvisual",-0.5,"yes","yes","yes",0.5,2,0.89146165208375,0,-1.55965621564386,-2,-1.20122384464089,0.6,2.75,"yes",33.6140909058,1,0
"MWPF201",0,36,"rabbit","Does it hop?","rabbit:nonvisual:yes:1","nomask",-0.5,"nonvisual",-0.5,"yes","yes","yes",0.5,2,0.89146165208375,1,-0.0302451605270142,-1.8,-0.750504460297776,0.666666666666667,1.66666666666667,"yes",165.638894658,1,0
"MWPF201",0,37,"penguin","Is it an herbivore?","penguin:nonvisual:no:3","nomask",-0.5,"nonvisual",-0.5,"no","","no",-0.5,2.66666666666667,1.92861124264929,2.33333333333333,2.00896957962879,-0.166666666666667,2.93037051183763,0.5,3.16666666666667,"yes",NA,0,1
"MWPF201",0,38,"strawberry","Is it small?","strawberry:visual:yes:4","mask",0.5,"visual",0.5,"yes","yes","yes",0.5,1.6,0.269171897744426,0.8,-0.336127371550384,-1.4,0.150934308388445,0.125,2.5,"yes",317.807509826,1,0
"MWPF201",0,39,"lion","Does it have fur?","lion:visual:yes:2","mask",0.5,"visual",0.5,"yes","yes","yes",0.5,1.28571428571429,-0.219770052093615,0.571428571428571,-0.685707041291378,-1.57142857142857,-0.235396592477078,0.461538461538462,1.71428571428571,"yes",284.674973838,1,0
"MWPF201",0,40,"chicken","Does it have a beak?","chicken:visual:yes:3","nomask",-0.5,"visual",0.5,"yes","yes","yes",0.5,1.4,-0.041972979425237,1.6,0.887401472543096,-1.2,0.601653692731556,0.555555555555556,1.25,"yes",375.201833871,1,0
"MWPF201",0,41,"grasshopper","Does it have antennae?","grasshopper:visual:yes:4","mask",0.5,"visual",0.5,"yes","yes","yes",0.5,2.11111111111111,1.06431991717801,1.22222222222222,0.309623962832286,-1,1.05237307707467,0.666666666666667,2.5,"yes",242.428767902,1,0
"MWPF201",0,42,"mouse","Is it grey?","mouse:visual:yes:2","nomask",-0.5,"visual",0.5,"yes","yes","yes",0.5,2,0.89146165208375,1.75,1.11681313081062,-1.375,0.207274231431334,0.470588235294118,1.6,"yes",207.290857972,1,0
"MWPF201",0,43,"dog","Is it a pet?","dog:nonvisual:yes:3","mask",0.5,"nonvisual",-0.5,"yes","yes","yes",0.5,0.666666666666667,-1.18283752904733,0,-1.55965621564386,-1.83333333333333,-0.825624357688294,0.642857142857143,1,"yes",432.84765823,1,0
"MWPF201",0,44,"strawberry","Is is used for riding?","strawberry:nonvisual:no:1","nomask",-0.5,"nonvisual",-0.5,"no","no","no",-0.5,1.4,-0.041972979425237,1.4,0.581519261519726,-1.6,-0.299785075954666,0.125,4,"no",111.630661821,1,0
"MWPF201",0,45,"dog","Does it have four legs?","dog:visual:yes:1","mask",0.5,"visual",0.5,"yes","yes","yes",0.5,1.25,-0.275331637302484,1,-0.0302451605270142,-2,-1.20122384464089,0.642857142857143,1.16666666666667,"yes",289.694842359,1,0
"MWPF201",0,46,"table","Does it grow in Hawaii?","table:nonvisual:no:4","mask",0.5,"nonvisual",-0.5,"no","no","no",-0.5,0.6,-1.28655248810389,0.4,-0.947891793597124,-2,-1.20122384464089,0.6,2.6,"no",222.502143617,1,0
"MWPF201",0,47,"pineapple","Is it prickly?","pineapple:nonvisual:yes:5","mask",0.5,"nonvisual",-0.5,"yes","","yes",0.5,1.25,-0.275331637302484,0.5,-0.794950688085439,-1.75,-0.637824614211998,0.3125,1.25,"yes",136.452379287,1,0
"MWPF201",0,48,"grasshopper","Does it fly?","grasshopper:nonvisual:yes:4","nomask",-0.5,"nonvisual",-0.5,"yes","","yes",0.5,1.71428571428571,0.446968970412804,1.57142857142857,0.843704013825471,-0.285714285714286,2.66208516401435,0.666666666666667,2,"no",NA,0,1
"MWPF201",0,49,"deer","Does it have four legs?","deer:visual:yes:2","nomask",-0.5,"visual",0.5,"yes","yes","yes",0.5,1,-0.664262733764561,0,-1.55965621564386,-1.75,-0.637824614211998,0.5625,2.5,"yes",274.547504116,1,0
"MWPF201",0,50,"donkey","Does it make noises?","donkey:nonvisual:yes:5","mask",0.5,"nonvisual",-0.5,"yes","yes","yes",0.5,1.4,-0.041972979425237,1,-0.0302451605270142,-1.6,-0.299785075954666,0.5,1.33333333333333,"yes",124.129643169,1,0
"MWPF201",0,51,"giraffe","Does it live in zoos?","giraffe:nonvisual:yes:3","nomask",-0.5,"nonvisual",-0.5,"yes","yes","yes",0.5,1.42857142857143,0.00247628874185779,0.571428571428571,-0.685707041291378,-1.85714285714286,-0.879281427252951,0.5,1.5,"yes",77.7701396146,1,0
"MWPF201",0,52,"pig","Does it have a snout?","pig:visual:yes:3","nomask",-0.5,"visual",0.5,"yes","yes","yes",0.5,2.75,2.05825494146998,1.25,0.352107603252198,-1.75,-0.637824614211998,0.578947368421053,1.4,"yes",289.29985041,1,0
"MWPF201",0,53,"swan","Does it have a hump?","swan:visual:no:1","nomask",-0.5,"visual",0.5,"no","no","no",-0.5,1.8,0.580316774914088,0.6,-0.642009582573754,-1.6,-0.299785075954666,0.533333333333333,2.5,"no",325.698771223,1,0
"MWPF201",0,54,"pineapple","Is it juicy?","pineapple:nonvisual:yes:1","nomask",-0.5,"nonvisual",-0.5,"yes","yes","yes",0.5,2.25,1.28039274854583,0.5,-0.794950688085439,-1.25,0.488973846645778,0.3125,1.25,"yes",346.142043476,1,0
"MWPF201",0,55,"dog","Does it have legs?","dog:visual:yes:2","mask",0.5,"visual",0.5,"yes","yes","yes",0.5,1.4,-0.041972979425237,0.8,-0.336127371550384,-2,-1.20122384464089,0.642857142857143,1.6,"yes",308.417384484,1,0
"MWPF201",0,56,"giraffe","Is it muddy?","giraffe:visual:no:3","nomask",-0.5,"visual",0.5,"no","no","no",-0.5,2,0.89146165208375,0.666666666666667,-0.540048845565964,-1,1.05237307707467,0.5,2,"no",200.74405105,1,0
"MWPF201",0,57,"raccoon","Is it used for holding beer?","raccoon:nonvisual:no:3","mask",0.5,"nonvisual",-0.5,"no","no","no",-0.5,1.25,-0.275331637302484,0.75,-0.412597924306227,-1.75,-0.637824614211998,0.545454545454545,1,"no",176.374254312,1,0
"MWPF201",0,58,"lion","Does it live in jungles?","lion:nonvisual:yes:4","mask",0.5,"nonvisual",-0.5,"yes","","yes",0.5,2,0.89146165208375,2,1.49916589458984,-0.8,1.50309246141778,0.461538461538462,2.8,"yes",290.962481988,1,0
"MWPF201",0,59,"deer","Is it an herbivore?","deer:nonvisual:yes:4","mask",0.5,"nonvisual",-0.5,"yes","","yes",0.5,1,-0.664262733764561,1.75,1.11681313081062,-1,1.05237307707467,0.5625,3,"yes",248.394199676,1,0
"MWPF201",0,60,"chicken","Does it eat grain?","chicken:nonvisual:yes:3","mask",0.5,"nonvisual",-0.5,"yes","yes","yes",0.5,1.25,-0.275331637302484,0.75,-0.412597924306227,-1,1.05237307707467,0.555555555555556,3,"yes",508.303994866,1,0
"MWPF201",0,61,"giraffe","Does it live in Africa?","giraffe:nonvisual:yes:2","mask",0.5,"nonvisual",-0.5,"yes","yes","yes",0.5,2,0.89146165208375,1.83333333333333,1.24426405207036,-1.16666666666667,0.676773590122074,0.5,3.25,"yes",151.656256348,1,0
"MWPF201",0,62,"rabbit","Is it hunted by people?","rabbit:nonvisual:yes:4","mask",0.5,"nonvisual",-0.5,"yes","","yes",0.5,1.5,0.113599459159594,1,-0.0302451605270142,-0.75,1.61577230750355,0.666666666666667,3.33333333333333,"yes",526.231484022,1,0
"MWPF201",0,63,"strawberry","Does it eat?","strawberry:nonvisual:no:4","mask",0.5,"nonvisual",-0.5,"no","","no",-0.5,1.75,0.502530555621672,0.25,-1.17730345186465,-2,-1.20122384464089,0.125,2,"no",389.299109549,1,0
"MWPF201",1,64,"bottle","Is it made of plastic?","bottle:visual:yes:2","nomask",-0.5,"visual",0.5,"yes","yes","yes",0.5,2.4,1.51375140642307,0.8,-0.336127371550384,-1.2,0.601653692731556,0.357142857142857,1.8,"yes",90.6769803842,1,0
"MWPF201",1,65,"swan","Does it live on water?","swan:nonvisual:yes:3","nomask",-0.5,"nonvisual",-0.5,"yes","yes","yes",0.5,1.66666666666667,0.37288685680098,1.66666666666667,0.989362209550886,-1.33333333333333,0.301174103169482,0.533333333333333,2.25,"yes",335.501435096,1,0
"MWPF201",1,66,"giraffe","Is it brown?","giraffe:visual:yes:4","nomask",-0.5,"visual",0.5,"yes","yes","yes",0.5,3.42857142857143,3.11392506043848,3,3.02857694970669,-0.428571428571429,2.34014274662641,0.5,1,"yes",322.206231067,1,0
"MWPF201",1,67,"mouse","Does it eat cheese?","mouse:nonvisual:yes:5","mask",0.5,"nonvisual",-0.5,"yes","yes","yes",0.5,0.75,-1.05319383022664,1.75,1.11681313081062,-1.25,0.488973846645778,0.470588235294118,2.25,"yes",409.735363151,1,0
"MWPF201",1,68,"rabbit","Does it have ears?","rabbit:visual:yes:1","nomask",-0.5,"visual",0.5,"yes","yes","yes",0.5,2,0.89146165208375,0.5,-0.794950688085439,-1.75,-0.637824614211998,0.666666666666667,1.25,"yes",289.949851984,1,0
"MWPF201",1,69,"raccoon","Does it have green leaves?","raccoon:visual:no:3","nomask",-0.5,"visual",0.5,"no","no","no",-0.5,0,-2.21998711961287,0.5,-0.794950688085439,-2,-1.20122384464089,0.545454545454545,4,"no",104.659228731,1,0
"MWPF201",1,70,"chicken","Does it live on a farm?","chicken:nonvisual:yes:2","nomask",-0.5,"nonvisual",-0.5,"yes","yes","yes",0.5,1.2,-0.353117856594899,0.8,-0.336127371550384,-1.2,0.601653692731556,0.555555555555556,2.16666666666667,"yes",188.394020312,1,0
"MWPF201",1,71,"giraffe","Does it have long legs?","giraffe:visual:yes:3","nomask",-0.5,"visual",0.5,"yes","yes","yes",0.5,2,0.89146165208375,1.75,1.11681313081062,-1.75,-0.637824614211998,0.5,1.4,"yes",255.885789986,1,0
"MWPF201",1,72,"raccoon","Does it have eyes?","raccoon:visual:yes:3","nomask",-0.5,"visual",0.5,"yes","yes","yes",0.5,1.2,-0.353117856594899,0.8,-0.336127371550384,-1.8,-0.750504460297776,0.545454545454545,1.57142857142857,"yes",638.504738919,1,0
"MWPF201",1,73,"grasshopper","Is it green?","grasshopper:visual:yes:1","mask",0.5,"visual",0.5,"yes","yes","yes",0.5,2,0.89146165208375,0.625,-0.603774306195833,-1.5,-0.0744253837831102,0.666666666666667,5,"yes",355.677610118,1,0
"MWPF201",1,74,"swan","Does it travel in herds?","swan:nonvisual:no:4","mask",0.5,"nonvisual",-0.5,"no","","no",-0.5,0.75,-1.05319383022664,1,-0.0302451605270142,-0.25,2.74257076836133,0.533333333333333,2.66666666666667,"yes",NA,0,1
"MWPF201",1,75,"table","Does it have a nose?","table:visual:no:2","nomask",-0.5,"visual",0.5,"no","no","no",-0.5,1.25,-0.275331637302484,0,-1.55965621564386,-2,-1.20122384464089,0.6,1.5,"no",317.908889818,1,0
"MWPF201",1,76,"dog","Is it pink?","dog:visual:no:2","nomask",-0.5,"visual",0.5,"no","no","no",-0.5,1.33333333333333,-0.145687938481791,0.444444444444444,-0.879917968925264,-1.33333333333333,0.301174103169482,0.642857142857143,1.85714285714286,"no",228.957708547,1,0
"MWPF201",1,77,"bottle","Is it used for holding beer?","bottle:nonvisual:yes:5","mask",0.5,"nonvisual",-0.5,"yes","yes","yes",0.5,2,0.89146165208375,1,-0.0302451605270142,-1.25,0.488973846645778,0.357142857142857,1.66666666666667,"yes",522.104149219,1,0
"MWPF201",1,78,"pig","Is it muddy?","pig:visual:yes:5","mask",0.5,"visual",0.5,"yes","yes","yes",0.5,1.5,0.113599459159594,1.33333333333333,0.479558524511936,-1.16666666666667,0.676773590122074,0.578947368421053,2.14285714285714,"yes",414.444852999,1,0
"MWPF201",1,79,"swan","Does it have a long neck?","swan:visual:yes:1","mask",0.5,"visual",0.5,"yes","yes","yes",0.5,2,0.89146165208375,1.5,0.734460367031411,-2,-1.20122384464089,0.533333333333333,2.6,"yes",469.445439812,1,0
"MWPF201",1,80,"giraffe","Is it a mammal?","giraffe:nonvisual:yes:4","mask",0.5,"nonvisual",-0.5,"yes","yes","yes",0.5,1.33333333333333,-0.145687938481791,1.66666666666667,0.989362209550886,-0.333333333333333,2.55477102488503,0.5,2,"yes",321.294591122,1,0
"MWPF201",1,81,"table","Is it found in kitchens?","table:nonvisual:yes:2","nomask",-0.5,"nonvisual",-0.5,"yes","yes","yes",0.5,1.5,0.113599459159594,0.25,-1.17730345186465,-1.5,-0.0744253837831102,0.6,1.66666666666667,"yes",63.8997991628,1,0
"MWPF201",1,82,"rabbit","Is it edible?","rabbit:nonvisual:yes:3","nomask",-0.5,"nonvisual",-0.5,"yes","yes","yes",0.5,0.2,-1.90884224244321,0.8,-0.336127371550384,-1.4,0.150934308388445,0.666666666666667,2.66666666666667,"yes",355.248304928,1,0
"MWPF201",1,83,"deer","Is it timid?","deer:nonvisual:yes:5","nomask",-0.5,"nonvisual",-0.5,"yes","yes","yes",0.5,2.33333333333333,1.41003644736652,1,-0.0302451605270142,-1.33333333333333,0.301174103169482,0.5625,2,"yes",387.700035353,1,0
"MWPF201",1,84,"giraffe","Does it eat leaves?","giraffe:nonvisual:yes:1","nomask",-0.5,"nonvisual",-0.5,"yes","yes","yes",0.5,1.6,0.269171897744426,2.2,1.80504810561321,-1.2,0.601653692731556,0.5,1.75,"yes",249.578395771,1,0
"MWPF201",1,85,"chicken","Does it have four legs?","chicken:visual:no:4","mask",0.5,"visual",0.5,"no","","no",-0.5,0.5,-1.44212492668872,0.25,-1.17730345186465,-2,-1.20122384464089,0.555555555555556,1,"yes",NA,0,1
"MWPF201",1,86,"table","Is it made of wood?","table:visual:yes:1","nomask",-0.5,"visual",0.5,"yes","yes","yes",0.5,2,0.89146165208375,2,1.49916589458984,-1,1.05237307707467,0.6,2.5,"no",NA,0,1
"MWPF201",1,87,"donkey","Does it have legs?","donkey:visual:yes:1","nomask",-0.5,"visual",0.5,"yes","yes","yes",0.5,1,-0.664262733764561,0.857142857142857,-0.248732454115136,-1.71428571428571,-0.557339009865014,0.5,1.28571428571429,"yes",285.124555056,1,0
"MWPF201",1,88,"pineapple","Is it tropical?","pineapple:nonvisual:yes:2","nomask",-0.5,"nonvisual",-0.5,"yes","yes","yes",0.5,1.33333333333333,-0.145687938481791,1.66666666666667,0.989362209550886,-1.66666666666667,-0.450024870735702,0.3125,2.5,"yes",217.696342821,1,0
"MWPF201",1,89,"penguin","Does it have a beak?","penguin:visual:yes:2","nomask",-0.5,"visual",0.5,"yes","yes","yes",0.5,2,0.89146165208375,0.6,-0.642009582573754,-1.2,0.601653692731556,0.5,2.75,"yes",136.26872559,1,0
"MWPF201",1,90,"deer","Is it a mammal?","deer:nonvisual:yes:3","mask",0.5,"nonvisual",-0.5,"yes","yes","yes",0.5,1.66666666666667,0.37288685680098,1.33333333333333,0.479558524511936,-1.16666666666667,0.676773590122074,0.5625,3.28571428571429,"yes",424.483420269,1,0
"MWPF201",1,91,"mouse","Does it have a white tail?","mouse:visual:no:4","nomask",-0.5,"visual",0.5,"no","","no",-0.5,2,0.89146165208375,1,-0.0302451605270142,-1.5,-0.0744253837831102,0.470588235294118,3,"yes",NA,0,1
"MWPF201",1,92,"raccoon","Does it have a beak?","raccoon:visual:no:5","mask",0.5,"visual",0.5,"no","no","no",-0.5,0.666666666666667,-1.18283752904733,0.333333333333333,-1.04985253060491,-1.77777777777778,-0.700424528704097,0.545454545454545,2.4,"no",332.571943698,1,0
"MWPF201",1,93,"lion","Is it grey?","lion:visual:no:1","mask",0.5,"visual",0.5,"no","no","no",-0.5,0.666666666666667,-1.18283752904733,0.777777777777778,-0.370114283886314,-1.44444444444444,0.0507744452010872,0.461538461538462,1.25,"no",518.052069528,1,0
"MWPF201",1,94,"strawberry","Is it furniture?","strawberry:nonvisual:no:3","nomask",-0.5,"nonvisual",-0.5,"no","no","no",-0.5,0.4,-1.59769736527355,0.4,-0.947891793597124,-1.8,-0.750504460297776,0.125,1.5,"no",229.418597533,1,0
"MWPF201",1,95,"mouse","Is it a rodent?","mouse:nonvisual:yes:1","mask",0.5,"nonvisual",-0.5,"yes","yes","yes",0.5,1.14285714285714,-0.442016392929088,1.14285714285714,0.188242133061107,-1.85714285714286,-0.879281427252951,0.470588235294118,4,"yes",196.422534558,1,0
"MWPF201",1,96,"lion","Does it lay eggs?","lion:nonvisual:no:4","nomask",-0.5,"nonvisual",-0.5,"no","no","no",-0.5,0.5,-1.44212492668872,1,-0.0302451605270142,-1.75,-0.637824614211998,0.461538461538462,3,"no",438.111228665,1,0
"MWPF201",1,97,"dog","Does it chase cats?","dog:nonvisual:yes:5","mask",0.5,"nonvisual",-0.5,"yes","yes","yes",0.5,1.4,-0.041972979425237,1.2,0.275637050496356,-1,1.05237307707467,0.642857142857143,2,"yes",286.678008211,1,0
"MWPF201",1,98,"penguin","Is it like a horse?","penguin:nonvisual:no:1","mask",0.5,"nonvisual",-0.5,"no","no","no",-0.5,1.75,0.502530555621672,0.75,-0.412597924306227,-2,-1.20122384464089,0.5,1.33333333333333,"no",773.37286112,1,0
"MWPF201",1,99,"bottle","Does it have armrests?","bottle:visual:no:3","nomask",-0.5,"visual",0.5,"no","no","no",-0.5,2,0.89146165208375,1.8,1.19328368356647,-0.8,1.50309246141778,0.357142857142857,2.28571428571429,"no",487.67979836,1,0
"MWPF201",1,100,"grasshopper","Does it have long legs?","grasshopper:visual:yes:3","mask",0.5,"visual",0.5,"yes","","yes",0.5,1,-0.664262733764561,1.2,0.275637050496356,-1.2,0.601653692731556,0.666666666666667,1.83333333333333,"yes",555.715510622,1,0
"MWPF201",1,101,"pig","Does it have a tail?","pig:visual:yes:2","nomask",-0.5,"visual",0.5,"yes","yes","yes",0.5,2.66666666666667,1.92861124264929,0.333333333333333,-1.04985253060491,-1.16666666666667,0.676773590122074,0.578947368421053,1.42857142857143,"yes",309.438982717,1,0
"MWPF201",1,102,"penguin","Does it lay eggs?","penguin:nonvisual:yes:4","mask",0.5,"nonvisual",-0.5,"yes","yes","yes",0.5,1.4,-0.041972979425237,1.8,1.19328368356647,-1,1.05237307707467,0.5,2,"yes",286.286135641,1,0
"MWPF201",1,103,"bottle","Does it have a lid?","bottle:visual:yes:3","mask",0.5,"visual",0.5,"yes","","yes",0.5,2.5,1.66932384500791,0.25,-1.17730345186465,-1.5,-0.0744253837831102,0.357142857142857,1.71428571428571,"yes",237.551611179,1,0
"MWPF201",1,104,"deer","Does it have antlers?","deer:visual:yes:1","mask",0.5,"visual",0.5,"yes","yes","yes",0.5,1.6,0.269171897744426,1,-0.0302451605270142,-0.6,1.95381184576089,0.5625,2,"yes",173.736815224,1,0
"MWPF201",1,105,"pineapple","Does it have skin?","pineapple:visual:yes:3","mask",0.5,"visual",0.5,"yes","yes","yes",0.5,2,0.89146165208375,0.75,-0.412597924306227,-0.875,1.33407269228911,0.3125,2.66666666666667,"yes",264.87858381,1,0
"MWPF201",1,106,"strawberry","Does it taste good?","strawberry:nonvisual:yes:4","mask",0.5,"nonvisual",-0.5,"yes","yes","yes",0.5,2.33333333333333,1.41003644736652,2.16666666666667,1.75406773710931,-1.16666666666667,0.676773590122074,0.125,1,"yes",201.190122927,1,0
"MWPF201",1,107,"pig","Does it have legs?","pig:visual:yes:4","mask",0.5,"visual",0.5,"yes","yes","yes",0.5,1.25,-0.275331637302484,2,1.49916589458984,-1.75,-0.637824614211998,0.578947368421053,1.8,"yes",567.617129942,1,0
"MWPF201",1,108,"giraffe","Is it tall?","giraffe:visual:yes:2","nomask",-0.5,"visual",0.5,"yes","yes","yes",0.5,2,0.89146165208375,1,-0.0302451605270142,-2,-1.20122384464089,0.5,2,"yes",622.344770672,1,0
"MWPF201",1,109,"donkey","Is it furry?","donkey:nonvisual:yes:4","mask",0.5,"nonvisual",-0.5,"yes","yes","yes",0.5,2.33333333333333,1.41003644736652,1.44444444444444,0.649493086191586,-1.22222222222222,0.551573761137876,0.5,2,"yes",330.042123387,1,0
"MWPF201",1,110,"penguin","Does it have feet?","penguin:visual:yes:3","mask",0.5,"visual",0.5,"yes","yes","yes",0.5,2.25,1.28039274854583,1.75,1.11681313081062,-1.75,-0.637824614211998,0.5,1.33333333333333,"yes",272.253587202,1,0
"MWPF201",1,111,"dog","Does it have antlers?","dog:visual:no:1","nomask",-0.5,"visual",0.5,"no","no","no",-0.5,1.75,0.502530555621672,0,-1.55965621564386,-1.25,0.488973846645778,0.642857142857143,1.75,"no",167.38185042,1,0
"MWPF201",1,112,"pineapple","Does it grow in Hawaii?","pineapple:nonvisual:yes:4","nomask",-0.5,"nonvisual",-0.5,"yes","yes","yes",0.5,1.5,0.113599459159594,1.16666666666667,0.224656681992461,-1.66666666666667,-0.450024870735702,0.3125,3,"yes",137.438884442,1,0
"MWPF201",1,113,"rabbit","Does it have a tail?","rabbit:visual:yes:4","nomask",-0.5,"visual",0.5,"yes","yes","yes",0.5,1.625,0.308065007390633,0.875,-0.22142154241662,-1.625,-0.356124998997554,0.666666666666667,1.5,"yes",378.888555715,1,0
"MWPF201",1,114,"pig","Is it pink?","pig:visual:yes:1","nomask",-0.5,"visual",0.5,"yes","yes","yes",0.5,1.71428571428571,0.446968970412804,0.571428571428571,-0.685707041291378,-1.28571428571429,0.408488242298794,0.578947368421053,1,"yes",370.073176833,1,0
"MWPF201",1,115,"donkey","Does it have four legs?","donkey:visual:yes:2","mask",0.5,"visual",0.5,"yes","yes","yes",0.5,2,0.89146165208375,0.25,-1.17730345186465,-2,-1.20122384464089,0.5,5,"yes",324.674443546,1,0
"MWPF201",1,116,"raccoon","Does it have a mask?","raccoon:visual:yes:5","mask",0.5,"visual",0.5,"yes","yes","yes",0.5,2.4,1.51375140642307,2.2,1.80504810561321,-1,1.05237307707467,0.545454545454545,2.71428571428571,"no",NA,0,1
"MWPF201",1,117,"donkey","Is it a mammal?","donkey:nonvisual:yes:3","nomask",-0.5,"nonvisual",-0.5,"yes","","yes",0.5,2,0.89146165208375,2,1.49916589458984,-2,-1.20122384464089,0.5,4,"yes",238.281157071,1,0
"MWPF201",1,118,"raccoon","Does it hop?","raccoon:nonvisual:no:1","nomask",-0.5,"nonvisual",-0.5,"no","no","no",-0.5,1.6,0.269171897744426,1.4,0.581519261519726,-0.6,1.95381184576089,0.545454545454545,1.75,"no",276.587191242,1,0
"MWPF201",1,119,"chicken","Does it have wings?","chicken:visual:yes:2","nomask",-0.5,"visual",0.5,"yes","yes","yes",0.5,1.25,-0.275331637302484,0,-1.55965621564386,-1.75,-0.637824614211998,0.555555555555556,1.5,"yes",764.533307025,1,0
"MWPF201",1,120,"bottle","Is it used for holding things?","bottle:nonvisual:yes:1","nomask",-0.5,"nonvisual",-0.5,"yes","yes","yes",0.5,2.66666666666667,1.92861124264929,1.22222222222222,0.309623962832286,-1.22222222222222,0.551573761137876,0.357142857142857,2.75,"yes",241.304619936,1,0
"MWPF201",1,121,"lion","Does it waddle?","lion:nonvisual:no:3","mask",0.5,"nonvisual",-0.5,"no","no","no",-0.5,1.75,0.502530555621672,0.75,-0.412597924306227,-1.5,-0.0744253837831102,0.461538461538462,1.33333333333333,"no",394.325996662,1,0
"MWPF201",1,122,"mouse","Is it an animal?","mouse:nonvisual:yes:2","mask",0.5,"nonvisual",-0.5,"yes","yes","yes",0.5,0.833333333333333,-0.923550131405946,0.666666666666667,-0.540048845565964,-1,1.05237307707467,0.470588235294118,2,"yes",222.650704265,1,0
"MWPF201",1,123,"table","Is it found in dining rooms?","table:nonvisual:yes:3","mask",0.5,"nonvisual",-0.5,"yes","yes","yes",0.5,1.57142857142857,0.224722629577331,0.285714285714286,-1.12268162846762,-1.85714285714286,-0.879281427252951,0.6,2.25,"yes",165.774587862,1,0
"MWPF201",1,124,"deer","Does it have a white tail?","deer:visual:yes:5","mask",0.5,"visual",0.5,"yes","yes","yes",0.5,2,0.89146165208375,1.75,1.11681313081062,-1,1.05237307707467,0.5625,1.25,"yes",559.472418594,1,0
"MWPF201",1,125,"strawberry","Does it have a mane?","strawberry:visual:no:3","nomask",-0.5,"visual",0.5,"no","no","no",-0.5,0.285714285714286,-1.77549443794193,0,-1.55965621564386,-1.85714285714286,-0.879281427252951,0.125,1,"no",391.098604101,1,0
"MWPF201",1,126,"chicken","Is it eaten by frying?","chicken:nonvisual:yes:4","nomask",-0.5,"nonvisual",-0.5,"yes","","yes",0.5,2,0.89146165208375,1.5,0.734460367031411,-1,1.05237307707467,0.555555555555556,2,"yes",266.71551101,1,0
"MWPF201",1,127,"rabbit","Does it have feet?","rabbit:visual:yes:2","nomask",-0.5,"visual",0.5,"yes","yes","yes",0.5,1.66666666666667,0.37288685680098,0.5,-0.794950688085439,-1.66666666666667,-0.450024870735702,0.666666666666667,2.8,"yes",407.552574296,1,0
"MWPF201",2,128,"dog","Does it have a tail?","dog:visual:yes:3","mask",0.5,"visual",0.5,"yes","yes","yes",0.5,2,0.89146165208375,1.28571428571429,0.406729426649229,-1.42857142857143,0.0865458249108578,0.642857142857143,1.14285714285714,"yes",1209.62064783,1,0
"MWPF201",2,129,"pig","Is it eaten as bacon?","pig:nonvisual:yes:3","nomask",-0.5,"nonvisual",-0.5,"yes","yes","yes",0.5,1.2,-0.353117856594899,2.2,1.80504810561321,-2,-1.20122384464089,0.578947368421053,3.57142857142857,"yes",859.273284936,1,0
"MWPF201",2,130,"dog","Does it have hair?","dog:visual:yes:4","mask",0.5,"visual",0.5,"yes","yes","yes",0.5,2,0.89146165208375,1,-0.0302451605270142,-1.8,-0.750504460297776,0.642857142857143,2.4,"yes",331.767922529,1,0
"MWPF201",2,131,"giraffe","Does it have spots?","giraffe:visual:yes:1","mask",0.5,"visual",0.5,"yes","yes","yes",0.5,2.85714285714286,2.22493969709659,1.85714285714286,1.28067860100171,-1.57142857142857,-0.235396592477078,0.5,2,"yes",14.7453276441,1,0
"MWPF201",2,132,"pig","Does it like mud?","pig:nonvisual:yes:5","nomask",-0.5,"nonvisual",-0.5,"yes","yes","yes",0.5,2.66666666666667,1.92861124264929,1.66666666666667,0.989362209550886,-1.66666666666667,-0.450024870735702,0.578947368421053,2.5,"yes",45.5383257358,1,0
"MWPF201",2,133,"pineapple","Is it yellow?","pineapple:visual:yes:1","mask",0.5,"visual",0.5,"yes","","yes",0.5,2,0.89146165208375,0,-1.55965621564386,-1.33333333333333,0.301174103169482,0.3125,1,"yes",380.454096507,1,0
"MWPF201",2,134,"table","Is it furniture?","table:nonvisual:yes:4","mask",0.5,"nonvisual",-0.5,"yes","yes","yes",0.5,1,-0.664262733764561,0.5,-0.794950688085439,-1.5,-0.0744253837831102,0.6,2.42857142857143,"yes",282.352982467,1,0
"MWPF201",2,135,"dog","Does it have a nose?","dog:visual:yes:5","nomask",-0.5,"visual",0.5,"yes","yes","yes",0.5,1.25,-0.275331637302484,0,-1.55965621564386,-2,-1.20122384464089,0.642857142857143,2,"yes",250.452213164,1,0
"MWPF201",2,136,"deer","Is it hunted by people?","deer:nonvisual:yes:1","nomask",-0.5,"nonvisual",-0.5,"yes","yes","yes",0.5,1,-0.664262733764561,0.8,-0.336127371550384,-2,-1.20122384464089,0.5625,1.66666666666667,"yes",346.257070749,1,0
"MWPF201",2,137,"strawberry","Is it used for making jam?","strawberry:nonvisual:yes:3","mask",0.5,"nonvisual",-0.5,"yes","yes","yes",0.5,2.42857142857143,1.55820067459017,2,1.49916589458984,-1.71428571428571,-0.557339009865014,0.125,2.28571428571429,"yes",290.287915239,1,0
"MWPF201",2,138,"lion","Does it roar?","lion:nonvisual:yes:5","mask",0.5,"nonvisual",-0.5,"yes","yes","yes",0.5,2,0.89146165208375,2,1.49916589458984,-2,-1.20122384464089,0.461538461538462,4,"yes",314.202671812,1,0
"MWPF201",2,139,"giraffe","Is it eaten by frying?","giraffe:nonvisual:no:1","mask",0.5,"nonvisual",-0.5,"no","no","no",-0.5,1,-0.664262733764561,0.8,-0.336127371550384,-1.4,0.150934308388445,0.5,3.33333333333333,"no",91.3963883067,1,0
"MWPF201",2,140,"bottle","Is it an animal?","bottle:nonvisual:no:1","nomask",-0.5,"nonvisual",-0.5,"no","no","no",-0.5,0.571428571428571,-1.33100175627098,0.714285714285714,-0.467219747703257,-1.57142857142857,-0.235396592477078,0.357142857142857,3,"no",192.374744045,1,0
"MWPF201",2,141,"chicken","Does it have feathers?","chicken:visual:yes:1","mask",0.5,"visual",0.5,"yes","yes","yes",0.5,2.5,1.66932384500791,2.16666666666667,1.75406773710931,-1,1.05237307707467,0.555555555555556,1,"yes",339.760563889,1,0
"MWPF201",2,142,"table","Does it have legs?","table:visual:yes:3","nomask",-0.5,"visual",0.5,"yes","yes","yes",0.5,1.25,-0.275331637302484,1.5,0.734460367031411,-0.75,1.61577230750355,0.6,1.75,"no",NA,0,1
"MWPF201",2,143,"bottle","Is it made of glass?","bottle:visual:yes:1","mask",0.5,"visual",0.5,"yes","yes","yes",0.5,2,0.89146165208375,1.25,0.352107603252198,-1.5,-0.0744253837831102,0.357142857142857,1.33333333333333,"yes",445.332602365,1,0
"MWPF201",2,144,"donkey","Does it chase cats?","donkey:nonvisual:no:4","nomask",-0.5,"nonvisual",-0.5,"no","no","no",-0.5,0.5,-1.44212492668872,0.5,-0.794950688085439,-1.83333333333333,-0.825624357688294,0.5,2.33333333333333,"no",321.031003172,1,0
"MWPF201",2,145,"giraffe","Does it have warts?","giraffe:visual:no:2","mask",0.5,"visual",0.5,"no","no","no",-0.5,1,-0.664262733764561,1,-0.0302451605270142,-0.875,1.33407269228911,0.5,3.6,"no",619.577877165,1,0
"MWPF201",2,146,"swan","Does it lay eggs?","swan:nonvisual:yes:4","mask",0.5,"nonvisual",-0.5,"yes","yes","yes",0.5,1.66666666666667,0.37288685680098,1.33333333333333,0.479558524511936,-1,1.05237307707467,0.533333333333333,1.33333333333333,"yes",321.996842395,1,0
"MWPF201",2,147,"strawberry","Is it red?","strawberry:visual:yes:1","mask",0.5,"visual",0.5,"yes","yes","yes",0.5,1.66666666666667,0.37288685680098,0,-1.55965621564386,-1.33333333333333,0.301174103169482,0.125,1,"yes",240.581312799,1,0
"MWPF201",2,148,"penguin","Does it have wings?","penguin:visual:yes:4","mask",0.5,"visual",0.5,"yes","yes","yes",0.5,2.5,1.66932384500791,1.75,1.11681313081062,-1.25,0.488973846645778,0.5,1.33333333333333,"yes",421.819856361,1,0
"MWPF201",2,149,"bottle","Does it have eyes?","bottle:visual:no:4","mask",0.5,"visual",0.5,"no","no","no",-0.5,1.5,0.113599459159594,1.16666666666667,0.224656681992461,-1,1.05237307707467,0.357142857142857,1.33333333333333,"no",245.062307746,1,0
"MWPF201",2,150,"penguin","Does it have a tail?","penguin:visual:no:2","mask",0.5,"visual",0.5,"no","","no",-0.5,2.5,1.66932384500791,2,1.49916589458984,-0.333333333333333,2.55477102488503,0.5,4,"yes",NA,0,1
"MWPF201",2,151,"donkey","Does it have a tail?","donkey:visual:yes:3","mask",0.5,"visual",0.5,"yes","","yes",0.5,2.66666666666667,1.92861124264929,2,1.49916589458984,-1,1.05237307707467,0.5,1.75,"yes",436.124960979,1,0
"MWPF201",2,152,"swan","Is it a bird?","swan:nonvisual:yes:2","nomask",-0.5,"nonvisual",-0.5,"yes","yes","yes",0.5,1.75,0.502530555621672,1,-0.0302451605270142,-1.25,0.488973846645778,0.533333333333333,1.6,"yes",470.091932133,1,0
"MWPF201",2,153,"pineapple","Does it have an inside?","pineapple:visual:yes:2","mask",0.5,"visual",0.5,"yes","","yes",0.5,1,-0.664262733764561,0.75,-0.412597924306227,-1.5,-0.0744253837831102,0.3125,1,"yes",288.326992537,1,0
"MWPF201",2,154,"swan","Is it graceful?","swan:nonvisual:yes:1","nomask",-0.5,"nonvisual",-0.5,"yes","yes","yes",0.5,1.57142857142857,0.224722629577331,0.571428571428571,-0.685707041291378,-1.85714285714286,-0.879281427252951,0.533333333333333,1.71428571428571,"yes",269.591972872,1,0
"MWPF201",2,155,"giraffe","Does it have antennae?","giraffe:visual:no:4","nomask",-0.5,"visual",0.5,"no","no","no",-0.5,2.16666666666667,1.15074904972513,1,-0.0302451605270142,-0.833333333333333,1.42797256402726,0.5,2.44444444444444,"no",227.796127991,1,0
"MWPF201",2,156,"raccoon","Does it have stripes?","raccoon:visual:yes:4","nomask",-0.5,"visual",0.5,"yes","","yes",0.5,1.66666666666667,0.37288685680098,1,-0.0302451605270142,-0.666666666666667,1.80357205097985,0.545454545454545,3,"yes",331.379169278,1,0
"MWPF201",2,157,"pineapple","Is it yellow inside?","pineapple:visual:yes:4","nomask",-0.5,"visual",0.5,"yes","yes","yes",0.5,1.75,0.502530555621672,0,-1.55965621564386,-1.75,-0.637824614211998,0.3125,1.66666666666667,"yes",149.303851009,1,0
"MWPF201",2,158,"swan","Is it made of wood?","swan:visual:no:4","nomask",-0.5,"visual",0.5,"no","no","no",-0.5,0.375,-1.63659047491976,0.125,-1.36847983375426,-1.875,-0.919524229426442,0.533333333333333,1.5,"no",102.591857081,1,0
"MWPF201",2,159,"bottle","Does it have a cork?","bottle:visual:yes:5","nomask",-0.5,"visual",0.5,"yes","no","yes",0.5,1.28571428571429,-0.219770052093615,0.285714285714286,-1.12268162846762,-1.71428571428571,-0.557339009865014,0.357142857142857,2,"yes",118.452754396,1,0
"MWPF201",2,160,"deer","Does it have eyes?","deer:visual:yes:3","mask",0.5,"visual",0.5,"yes","yes","yes",0.5,2.16666666666667,1.15074904972513,0.833333333333333,-0.285147003046489,-1.83333333333333,-0.825624357688294,0.5625,2.14285714285714,"yes",620.274669549,1,0
"MWPF201",2,161,"bottle","Is it juicy?","bottle:nonvisual:no:2","mask",0.5,"nonvisual",-0.5,"no","no","no",-0.5,1.25,-0.275331637302484,0.25,-1.17730345186465,-1.75,-0.637824614211998,0.357142857142857,3.2,"no",515.521079418,1,0
"MWPF201",2,162,"grasshopper","Does it live in grass?","grasshopper:nonvisual:yes:2","mask",0.5,"nonvisual",-0.5,"yes","yes","yes",0.5,1.25,-0.275331637302484,0.5,-0.794950688085439,-1,1.05237307707467,0.666666666666667,1.88888888888889,"yes",119.422102929,1,0
"MWPF201",2,163,"raccoon","Does it produce offspring?","raccoon:nonvisual:yes:4","nomask",-0.5,"nonvisual",-0.5,"yes","yes","yes",0.5,1,-0.664262733764561,0.75,-0.412597924306227,-1.75,-0.637824614211998,0.545454545454545,1.5,"yes",574.98706429,1,0
"MWPF201",2,164,"lion","Is it yellow inside?","lion:visual:no:4","mask",0.5,"visual",0.5,"no","no","no",-0.5,1.25,-0.275331637302484,1.25,0.352107603252198,-1.5,-0.0744253837831102,0.461538461538462,2.14285714285714,"no",518.619797396,1,0
"MWPF201",2,165,"table","Is it flat?","table:visual:yes:4","mask",0.5,"visual",0.5,"yes","yes","yes",0.5,2.14285714285714,1.11370799291922,1.71428571428571,1.06219130741359,-1.28571428571429,0.408488242298794,0.6,1,"yes",605.949678866,1,0
"MWPF201",2,166,"pig","Is it an animal?","pig:nonvisual:yes:1","mask",0.5,"nonvisual",-0.5,"yes","yes","yes",0.5,1,-0.664262733764561,0.375,-0.986127069975045,-1.75,-0.637824614211998,0.578947368421053,2.6,"yes",309.204638994,1,0
"MWPF201",2,167,"raccoon","Is it furry?","raccoon:nonvisual:yes:2","nomask",-0.5,"nonvisual",-0.5,"yes","yes","yes",0.5,1.8,0.580316774914088,1.6,0.887401472543096,-1.6,-0.299785075954666,0.545454545454545,1.57142857142857,"yes",477.074283059,1,0
"MWPF201",2,168,"deer","Does it have large teeth?","deer:visual:no:5","mask",0.5,"visual",0.5,"no","","no",-0.5,1.85714285714286,0.669215311248277,1.57142857142857,0.843704013825471,-0.285714285714286,2.66208516401435,0.5625,3.16666666666667,"yes",NA,0,1
"MWPF201",2,169,"donkey","Is it like a horse?","donkey:nonvisual:yes:2","mask",0.5,"nonvisual",-0.5,"yes","yes","yes",0.5,2.2,1.20260652925341,1.2,0.275637050496356,-1.2,0.601653692731556,0.5,3.25,"yes",364.524182834,1,0
"MWPF201",2,170,"mouse","Does it have whiskers?","mouse:visual:yes:4","nomask",-0.5,"visual",0.5,"yes","","yes",0.5,1.33333333333333,-0.145687938481791,0.333333333333333,-1.04985253060491,-2,-1.20122384464089,0.470588235294118,2.5,"yes",282.068338682,1,0
"MWPF201",2,171,"chicken","Does it lay eggs?","chicken:nonvisual:yes:1","mask",0.5,"nonvisual",-0.5,"yes","yes","yes",0.5,2.83333333333333,2.18789864029068,2.5,2.26387142214826,-1.33333333333333,0.301174103169482,0.555555555555556,2.16666666666667,"yes",812.849444104,1,0
"MWPF201",2,172,"penguin","Does it eat grain?","penguin:nonvisual:no:5","mask",0.5,"nonvisual",-0.5,"no","no","no",-0.5,0.6,-1.28655248810389,2,1.49916589458984,-1.4,0.150934308388445,0.5,2.5,"no",589.569794072,1,0
"MWPF201",2,173,"lion","Does it have a mane?","lion:visual:yes:1","nomask",-0.5,"visual",0.5,"yes","yes","yes",0.5,0.8,-0.975407610934224,1.6,0.887401472543096,-1.6,-0.299785075954666,0.461538461538462,2.5,"yes",1212.54273067,1,0
"MWPF201",2,174,"deer","Is it fast?","deer:nonvisual:yes:2","nomask",-0.5,"nonvisual",-0.5,"yes","yes","yes",0.5,1.8,0.580316774914088,2,1.49916589458984,-1.4,0.150934308388445,0.5625,2.16666666666667,"yes",564.484878589,1,0
"MWPF201",2,175,"penguin","Is it unable to fly?","penguin:nonvisual:yes:2","nomask",-0.5,"nonvisual",-0.5,"yes","yes","yes",0.5,1.83333333333333,0.632174254442365,2.33333333333333,2.00896957962879,-1.5,-0.0744253837831102,0.5,3.75,"yes",619.848483708,1,0
"MWPF201",2,176,"rabbit","Is it a pet?","rabbit:nonvisual:yes:2","nomask",-0.5,"nonvisual",-0.5,"yes","yes","yes",0.5,1.2,-0.353117856594899,0.2,-1.25377400462049,-1.8,-0.750504460297776,0.666666666666667,3,"yes",117.487305077,1,0
"MWPF201",2,177,"strawberry","Does it have green leaves?","strawberry:visual:yes:3","nomask",-0.5,"visual",0.5,"yes","yes","yes",0.5,2,0.89146165208375,0,-1.55965621564386,-1.66666666666667,-0.450024870735702,0.125,2,"yes",118.578699534,1,0
"MWPF201",2,178,"raccoon","Is it black?","raccoon:visual:yes:1","mask",0.5,"visual",0.5,"yes","","yes",0.5,1.75,0.502530555621672,1.25,0.352107603252198,-0.5,2.17917153793244,0.545454545454545,1.4,"no",NA,0,1
"MWPF201",2,179,"chicken","Does it have legs?","chicken:visual:yes:4","nomask",-0.5,"visual",0.5,"yes","yes","yes",0.5,1.14285714285714,-0.442016392929088,0.428571428571429,-0.9041943348795,-2,-1.20122384464089,0.555555555555556,1.16666666666667,"yes",65.7250286313,1,0
"MWPF201",2,180,"dog","Is it eaten in pies?","dog:nonvisual:no:2","mask",0.5,"nonvisual",-0.5,"no","no","no",-0.5,0.857142857142857,-0.886509074600034,0.571428571428571,-0.685707041291378,-1.57142857142857,-0.235396592477078,0.642857142857143,3,"no",288.506357116,1,0
"MWPF201",2,181,"mouse","Does it have fur?","mouse:visual:yes:3","nomask",-0.5,"visual",0.5,"yes","yes","yes",0.5,2.57142857142857,1.78044701542564,2.14285714285714,1.71765318817796,-1.57142857142857,-0.235396592477078,0.470588235294118,1,"yes",501.794230629,1,0
"MWPF201",2,182,"rabbit","Is it flat?","rabbit:visual:no:4","mask",0.5,"visual",0.5,"no","no","no",-0.5,0.666666666666667,-1.18283752904733,0.5,-0.794950688085439,-1.66666666666667,-0.450024870735702,0.666666666666667,1.75,"no",394.578666775,1,0
"MWPF201",2,183,"raccoon","Does it have a tail?","raccoon:visual:yes:2","nomask",-0.5,"visual",0.5,"yes","yes","yes",0.5,1.2,-0.353117856594899,0.4,-0.947891793597124,-1.8,-0.750504460297776,0.545454545454545,1.33333333333333,"yes",129.486405145,1,0
"MWPF201",2,184,"penguin","Does it waddle?","penguin:nonvisual:yes:5","nomask",-0.5,"nonvisual",-0.5,"yes","yes","yes",0.5,1.75,0.502530555621672,0,-1.55965621564386,-1.5,-0.0744253837831102,0.5,1.55555555555556,"yes",159.637589997,1,0
"MWPF201",2,185,"grasshopper","Does it have legs?","grasshopper:visual:yes:2","mask",0.5,"visual",0.5,"yes","yes","yes",0.5,1,-0.664262733764561,0.25,-1.17730345186465,-1.5,-0.0744253837831102,0.666666666666667,1.75,"yes",292.370103998,1,0
"MWPF201",2,186,"pineapple","Does it have a core?","pineapple:visual:yes:5","mask",0.5,"visual",0.5,"yes","yes","yes",0.5,1.5,0.113599459159594,2,1.49916589458984,0,3.30596999879022,0.3125,1.8,"yes",30.8089849132,1,0
"MWPF201",2,187,"strawberry","Does it have a tail?","strawberry:visual:no:2","nomask",-0.5,"visual",0.5,"no","no","no",-0.5,2.75,2.05825494146998,0.75,-0.412597924306227,-1.5,-0.0744253837831102,0.125,2,"no",317.96815811,1,0
"MWPF201",2,188,"lion","Does it have teeth?","lion:visual:yes:4","nomask",-0.5,"visual",0.5,"yes","yes","yes",0.5,1.125,-0.469797185533523,1.125,0.160931221362592,-2,-1.20122384464089,0.461538461538462,1,"yes",85.0180280686,1,0
"MWPF201",2,189,"grasshopper","Is it long?","grasshopper:visual:no:4","mask",0.5,"visual",0.5,"no","","no",-0.5,1.2,-0.353117856594899,1,-0.0302451605270142,-1.6,-0.299785075954666,0.666666666666667,1.28571428571429,"no",455.574319523,1,0
"MWPF201",2,190,"rabbit","Does it eat carrots?","rabbit:nonvisual:yes:5","mask",0.5,"nonvisual",-0.5,"yes","yes","yes",0.5,1.85714285714286,0.669215311248277,2.14285714285714,1.71765318817796,-1.57142857142857,-0.235396592477078,0.666666666666667,2.66666666666667,"yes",294.125927205,1,0
"MWPF201",2,191,"dog","Does it bark?","dog:nonvisual:yes:1","nomask",-0.5,"nonvisual",-0.5,"yes","yes","yes",0.5,1.41666666666667,-0.0160442396610982,1.33333333333333,0.479558524511936,-1.33333333333333,0.301174103169482,0.642857142857143,1,"yes",53.3083210757,1,0
"MWPF202",0,0,"camel","Is it a mammal?","camel:nonvisual:yes:4","mask",0.5,"nonvisual",-0.5,"yes","yes","yes",0.5,0.5,-1.44212492668872,2,1.49916589458984,-1.5,-0.0744253837831102,0.461538461538462,2.5,"yes",340.0505709,1,0
"MWPF202",0,1,"mouse","Does it have whiskers?","mouse:visual:yes:4","nomask",-0.5,"visual",0.5,"yes","","yes",0.5,1.33333333333333,-0.145687938481791,0.333333333333333,-1.04985253060491,-2,-1.20122384464089,0.470588235294118,2.5,"yes",444.093125174,1,0
"MWPF202",0,2,"penguin","Is it red?","penguin:visual:no:1","mask",0.5,"visual",0.5,"no","no","no",-0.5,1.28571428571429,-0.219770052093615,0.571428571428571,-0.685707041291378,-1.85714285714286,-0.879281427252951,0.5,1,"no",396.123020444,1,0
"MWPF202",0,3,"swan","Does it lay eggs?","swan:nonvisual:yes:4","nomask",-0.5,"nonvisual",-0.5,"yes","yes","yes",0.5,1.66666666666667,0.37288685680098,1.33333333333333,0.479558524511936,-1,1.05237307707467,0.533333333333333,1.33333333333333,"yes",505.584251601,1,0
"MWPF202",0,4,"mouse","Is it an animal?","mouse:nonvisual:yes:2","mask",0.5,"nonvisual",-0.5,"yes","yes","yes",0.5,0.833333333333333,-0.923550131405946,0.666666666666667,-0.540048845565964,-1,1.05237307707467,0.470588235294118,2,"yes",706.270754104,1,0
"MWPF202",0,5,"pig","Is it smelly?","pig:nonvisual:yes:4","mask",0.5,"nonvisual",-0.5,"yes","yes","yes",0.5,1,-0.664262733764561,0.333333333333333,-1.04985253060491,-1.83333333333333,-0.825624357688294,0.578947368421053,1.75,"yes",520.110823214,1,0
"MWPF202",0,6,"chair","Is it found at tables?","chair:nonvisual:yes:5","nomask",-0.5,"nonvisual",-0.5,"yes","yes","yes",0.5,2.16666666666667,1.15074904972513,0.333333333333333,-1.04985253060491,-1.66666666666667,-0.450024870735702,0.466666666666667,3,"yes",1039.55604695,1,0
"MWPF202",0,7,"pineapple","Does it grow on trees?","pineapple:nonvisual:yes:3","mask",0.5,"nonvisual",-0.5,"yes","","yes",0.5,1.25,-0.275331637302484,2.25,1.88151865836905,-1.25,0.488973846645778,0.3125,2,"no",NA,0,1
"MWPF202",0,8,"camel","Does it spit?","camel:nonvisual:yes:5","mask",0.5,"nonvisual",-0.5,"yes","yes","yes",0.5,1.83333333333333,0.632174254442365,2.5,2.26387142214826,-1.5,-0.0744253837831102,0.461538461538462,2.33333333333333,"yes",466.240169713,1,0
"MWPF202",0,9,"rabbit","Is it a pet?","rabbit:nonvisual:yes:2","mask",0.5,"nonvisual",-0.5,"yes","yes","yes",0.5,1.2,-0.353117856594899,0.2,-1.25377400462049,-1.8,-0.750504460297776,0.666666666666667,3,"yes",360.895020422,1,0
"MWPF202",0,10,"lion","Is it a mammal?","lion:nonvisual:yes:3","mask",0.5,"nonvisual",-0.5,"yes","yes","yes",0.5,0.666666666666667,-1.18283752904733,1.66666666666667,0.989362209550886,-1.5,-0.0744253837831102,0.461538461538462,3.83333333333333,"yes",402.041538386,1,0
"MWPF202",0,11,"zebra","Does it have four legs?","zebra:visual:yes:2","nomask",-0.5,"visual",0.5,"yes","yes","yes",0.5,1,-0.664262733764561,1.2,0.275637050496356,-1.8,-0.750504460297776,0.538461538461538,1.8,"yes",351.36099509,1,0
"MWPF202",0,12,"chicken","Does it have feathers?","chicken:visual:yes:1","nomask",-0.5,"visual",0.5,"yes","yes","yes",0.5,2.5,1.66932384500791,2.16666666666667,1.75406773710931,-1,1.05237307707467,0.555555555555556,1,"yes",438.073391793,1,0
"MWPF202",0,13,"chair","Does it have a tail?","chair:visual:no:5","nomask",-0.5,"visual",0.5,"no","no","no",-0.5,3.2,2.75833091510172,1.2,0.275637050496356,-1.8,-0.750504460297776,0.466666666666667,3,"no",1894.2195524,1,0
"MWPF202",0,14,"pig","Is it pink?","pig:visual:yes:1","mask",0.5,"visual",0.5,"yes","yes","yes",0.5,1.71428571428571,0.446968970412804,0.571428571428571,-0.685707041291378,-1.28571428571429,0.408488242298794,0.578947368421053,1,"yes",722.832630156,1,0
"MWPF202",0,15,"lion","Does it live in jungles?","lion:nonvisual:yes:4","nomask",-0.5,"nonvisual",-0.5,"yes","","yes",0.5,2,0.89146165208375,2,1.49916589458984,-0.8,1.50309246141778,0.461538461538462,2.8,"yes",374.333162792,1,0
"MWPF202",0,16,"rabbit","Does it have feet?","rabbit:visual:yes:2","mask",0.5,"visual",0.5,"yes","yes","yes",0.5,1.66666666666667,0.37288685680098,0.5,-0.794950688085439,-1.66666666666667,-0.450024870735702,0.666666666666667,2.8,"yes",323.648585472,1,0
"MWPF202",0,17,"zebra","Does it have stripes?","zebra:visual:yes:1","mask",0.5,"visual",0.5,"yes","yes","yes",0.5,1.75,0.502530555621672,1,-0.0302451605270142,-2,-1.20122384464089,0.538461538461538,2.2,"yes",1096.20608296,1,0
"MWPF202",0,18,"alligator","Is it grey?","alligator:visual:no:2","nomask",-0.5,"visual",0.5,"no","no","no",-0.5,1.8,0.580316774914088,0.2,-1.25377400462049,-1.6,-0.299785075954666,0.571428571428571,2,"no",545.300555648,1,0
"MWPF202",0,19,"swan","Does it travel in herds?","swan:nonvisual:no:4","nomask",-0.5,"nonvisual",-0.5,"no","","no",-0.5,0.75,-1.05319383022664,1,-0.0302451605270142,-0.25,2.74257076836133,0.533333333333333,2.66666666666667,"yes",NA,0,1
"MWPF202",0,20,"mouse","Does it have a white tail?","mouse:visual:no:4","nomask",-0.5,"visual",0.5,"no","","no",-0.5,2,0.89146165208375,1,-0.0302451605270142,-1.5,-0.0744253837831102,0.470588235294118,3,"no",617.701646406,1,0
"MWPF202",0,21,"chicken","Is it comfortable?","chicken:nonvisual:no:5","mask",0.5,"nonvisual",-0.5,"no","","no",-0.5,1.4,-0.041972979425237,0.6,-0.642009582573754,-0.6,1.95381184576089,0.555555555555556,4,"no",1118.77118959,1,0
"MWPF202",0,22,"alligator","Does it live in swamps?","alligator:nonvisual:yes:3","mask",0.5,"nonvisual",-0.5,"yes","yes","yes",0.5,1.33333333333333,-0.145687938481791,1.66666666666667,0.989362209550886,-1.33333333333333,0.301174103169482,0.571428571428571,2,"yes",147.794995457,1,0
"MWPF202",0,23,"apple","Does it have a core?","apple:visual:yes:5","nomask",-0.5,"visual",0.5,"yes","yes","yes",0.5,0.75,-1.05319383022664,1.25,0.352107603252198,-2,-1.20122384464089,0.235294117647059,3.2,"yes",377.550777281,1,0
"MWPF202",0,24,"chicken","Is it eaten by frying?","chicken:nonvisual:yes:4","mask",0.5,"nonvisual",-0.5,"yes","","yes",0.5,2,0.89146165208375,1.5,0.734460367031411,-1,1.05237307707467,0.555555555555556,2,"yes",349.493649323,1,0
"MWPF202",0,25,"alligator","Does it eat people?","alligator:nonvisual:yes:5","nomask",-0.5,"nonvisual",-0.5,"yes","yes","yes",0.5,2.4,1.51375140642307,3,3.02857694970669,-1.2,0.601653692731556,0.571428571428571,4,"yes",144.930167124,1,0
"MWPF202",0,26,"lion","Is it a carnivore?","lion:nonvisual:yes:2","nomask",-0.5,"nonvisual",-0.5,"yes","yes","yes",0.5,1.375,-0.0808660890714446,1.5,0.734460367031411,-1.75,-0.637824614211998,0.461538461538462,3.25,"yes",193.240222754,1,0
"MWPF202",0,27,"strawberry","Is it used for making jam?","strawberry:nonvisual:yes:3","mask",0.5,"nonvisual",-0.5,"yes","yes","yes",0.5,2.42857142857143,1.55820067459017,2,1.49916589458984,-1.71428571428571,-0.557339009865014,0.125,2.28571428571429,"yes",232.981830835,1,0
"MWPF202",0,28,"table","Is it round?","table:visual:yes:2","nomask",-0.5,"visual",0.5,"yes","","yes",0.5,1.83333333333333,0.632174254442365,0.833333333333333,-0.285147003046489,-1.66666666666667,-0.450024870735702,0.6,1,"yes",367.437698646,1,0
"MWPF202",0,29,"penguin","Does it like mud?","penguin:nonvisual:no:4","nomask",-0.5,"nonvisual",-0.5,"no","no","no",-0.5,2.16666666666667,1.15074904972513,1.16666666666667,0.224656681992461,-1,1.05237307707467,0.5,4,"no",525.452121627,1,0
"MWPF202",0,30,"swan","Does it have four legs?","swan:visual:no:3","nomask",-0.5,"visual",0.5,"no","no","no",-0.5,2.5,1.66932384500791,2.16666666666667,1.75406773710931,-1.66666666666667,-0.450024870735702,0.533333333333333,2,"no",890.81380982,1,0
"MWPF202",0,31,"rabbit","Does it eat carrots?","rabbit:nonvisual:yes:5","nomask",-0.5,"nonvisual",-0.5,"yes","yes","yes",0.5,1.85714285714286,0.669215311248277,2.14285714285714,1.71765318817796,-1.57142857142857,-0.235396592477078,0.666666666666667,2.66666666666667,"yes",95.4418352339,1,0
"MWPF202",0,32,"pig","Is it an animal?","pig:nonvisual:yes:1","nomask",-0.5,"nonvisual",-0.5,"yes","yes","yes",0.5,1,-0.664262733764561,0.375,-0.986127069975045,-1.75,-0.637824614211998,0.578947368421053,2.6,"yes",638.772729784,1,0
"MWPF202",0,33,"zebra","Does it live in water?","zebra:nonvisual:no:4","nomask",-0.5,"nonvisual",-0.5,"no","no","no",-0.5,0.4,-1.59769736527355,1.4,0.581519261519726,-1.8,-0.750504460297776,0.538461538461538,1.83333333333333,"no",577.504937071,1,0
"MWPF202",0,34,"bottle","Does it have a neck?","bottle:visual:yes:4","mask",0.5,"visual",0.5,"yes","yes","yes",0.5,2.2,1.20260652925341,1.4,0.581519261519726,-1.4,0.150934308388445,0.357142857142857,1.88888888888889,"yes",539.834205061,1,0
"MWPF202",0,35,"giraffe","Is it green?","giraffe:visual:no:1","nomask",-0.5,"visual",0.5,"no","no","no",-0.5,1.6,0.269171897744426,0.4,-0.947891793597124,-1.8,-0.750504460297776,0.5,2.5,"no",454.533319222,1,0
"MWPF202",0,36,"penguin","Does it have wings?","penguin:visual:yes:4","nomask",-0.5,"visual",0.5,"yes","yes","yes",0.5,2.5,1.66932384500791,1.75,1.11681313081062,-1.25,0.488973846645778,0.5,1.33333333333333,"yes",446.259715827,1,0
"MWPF202",0,37,"pineapple","Is it prickly?","pineapple:nonvisual:yes:5","mask",0.5,"nonvisual",-0.5,"yes","","yes",0.5,1.25,-0.275331637302484,0.5,-0.794950688085439,-1.75,-0.637824614211998,0.3125,1.25,"yes",221.622632584,1,0
"MWPF202",0,38,"bottle","Is it used for holding liquids?","bottle:nonvisual:yes:2","nomask",-0.5,"nonvisual",-0.5,"yes","yes","yes",0.5,1.4,-0.041972979425237,0.8,-0.336127371550384,-1.6,-0.299785075954666,0.357142857142857,1.25,"yes",261.123671429,1,0
"MWPF202",0,39,"rabbit","Does it have a tail?","rabbit:visual:yes:4","mask",0.5,"visual",0.5,"yes","yes","yes",0.5,1.625,0.308065007390633,0.875,-0.22142154241662,-1.625,-0.356124998997554,0.666666666666667,1.5,"yes",428.38864401,1,0
"MWPF202",0,40,"penguin","Is it like a horse?","penguin:nonvisual:no:1","mask",0.5,"nonvisual",-0.5,"no","no","no",-0.5,1.75,0.502530555621672,0.75,-0.412597924306227,-2,-1.20122384464089,0.5,1.33333333333333,"no",162.902453914,1,0
"MWPF202",0,41,"chair","Is it used for sitting on?","chair:nonvisual:yes:1","mask",0.5,"nonvisual",-0.5,"yes","yes","yes",0.5,0.75,-1.05319383022664,1,-0.0302451605270142,-1.5,-0.0744253837831102,0.466666666666667,2.42857142857143,"yes",795.806173002,1,0
"MWPF202",0,42,"chicken","Does it have hooves?","chicken:visual:no:3","mask",0.5,"visual",0.5,"no","no","no",-0.5,1.2,-0.353117856594899,1,-0.0302451605270142,-1.8,-0.750504460297776,0.555555555555556,1.5,"no",455.003823154,1,0
"MWPF202",0,43,"table","Is it a mammal?","table:nonvisual:no:2","nomask",-0.5,"nonvisual",-0.5,"no","no","no",-0.5,1.33333333333333,-0.145687938481791,1.33333333333333,0.479558524511936,-1,1.05237307707467,0.6,2.5,"yes",NA,0,1
"MWPF202",0,44,"apple","Is it fast?","apple:nonvisual:no:3","nomask",-0.5,"nonvisual",-0.5,"no","no","no",-0.5,0,-2.21998711961287,0,-1.55965621564386,-2,-1.20122384464089,0.235294117647059,2.5,"no",1142.77311135,1,0
"MWPF202",0,45,"camel","Does it have seeds?","camel:visual:no:2","nomask",-0.5,"visual",0.5,"no","no","no",-0.5,1.16666666666667,-0.404975336123176,1.83333333333333,1.24426405207036,-1.33333333333333,0.301174103169482,0.461538461538462,1.66666666666667,"no",920.810527867,1,0
"MWPF202",0,46,"giraffe","Does it live in zoos?","giraffe:nonvisual:yes:3","nomask",-0.5,"nonvisual",-0.5,"yes","yes","yes",0.5,1.42857142857143,0.00247628874185779,0.571428571428571,-0.685707041291378,-1.85714285714286,-0.879281427252951,0.5,1.5,"yes",546.554743312,1,0
"MWPF202",0,47,"swan","Does it have a beak?","swan:visual:yes:2","mask",0.5,"visual",0.5,"yes","yes","yes",0.5,3.25,2.83611713439414,1.5,0.734460367031411,-1.75,-0.637824614211998,0.533333333333333,2.8,"no",NA,0,1
"MWPF202",0,48,"chair","Does it have legs?","chair:visual:yes:1","nomask",-0.5,"visual",0.5,"yes","yes","yes",0.5,1.7,0.424744336329256,0.8,-0.336127371550384,-1.5,-0.0744253837831102,0.466666666666667,1.5,"yes",958.659119438,1,0
"MWPF202",0,49,"pineapple","Does it have skin?","pineapple:visual:yes:3","nomask",-0.5,"visual",0.5,"yes","yes","yes",0.5,2,0.89146165208375,0.75,-0.412597924306227,-0.875,1.33407269228911,0.3125,2.66666666666667,"yes",523.446521722,1,0
"MWPF202",0,50,"apple","Is it red?","apple:visual:yes:1","mask",0.5,"visual",0.5,"yes","","yes",0.5,2.625,1.86378939323894,0.625,-0.603774306195833,-1.375,0.207274231431334,0.235294117647059,1.42857142857143,"yes",488.820312079,1,0
"MWPF202",0,51,"table","Is it made of wood?","table:visual:yes:1","mask",0.5,"visual",0.5,"yes","yes","yes",0.5,2,0.89146165208375,2,1.49916589458984,-1,1.05237307707467,0.6,2.5,"yes",719.793609111,1,0
"MWPF202",0,52,"mouse","Does it eat cheese?","mouse:nonvisual:yes:5","mask",0.5,"nonvisual",-0.5,"yes","yes","yes",0.5,0.75,-1.05319383022664,1.75,1.11681313081062,-1.25,0.488973846645778,0.470588235294118,2.25,"yes",663.208849728,1,0
"MWPF202",0,53,"alligator","Is it a reptile?","alligator:nonvisual:yes:2","nomask",-0.5,"nonvisual",-0.5,"yes","yes","yes",0.5,1.57142857142857,0.224722629577331,2.42857142857143,2.1546277753542,-1.71428571428571,-0.557339009865014,0.571428571428571,1,"yes",144.820884103,1,0
"MWPF202",0,54,"bottle","Does it have feet?","bottle:visual:no:1","mask",0.5,"visual",0.5,"no","no","no",-0.5,0.4,-1.59769736527355,0.4,-0.947891793597124,-1.2,0.601653692731556,0.357142857142857,1.6,"no",1454.07308382,1,0
"MWPF202",0,55,"pig","Does it have legs?","pig:visual:yes:4","mask",0.5,"visual",0.5,"yes","yes","yes",0.5,1.25,-0.275331637302484,2,1.49916589458984,-1.75,-0.637824614211998,0.578947368421053,1.8,"yes",1143.68294715,1,0
"MWPF202",0,56,"pineapple","Is it juicy?","pineapple:nonvisual:yes:1","nomask",-0.5,"nonvisual",-0.5,"yes","yes","yes",0.5,2.25,1.28039274854583,0.5,-0.794950688085439,-1.25,0.488973846645778,0.3125,1.25,"yes",236.741092755,1,0
"MWPF202",0,57,"apple","Does it grow on trees?","apple:nonvisual:yes:2","mask",0.5,"nonvisual",-0.5,"yes","yes","yes",0.5,2,0.89146165208375,0.833333333333333,-0.285147003046489,-1.83333333333333,-0.825624357688294,0.235294117647059,2.2,"yes",751.077152556,1,0
"MWPF202",0,58,"mouse","Does it live in zoos?","mouse:nonvisual:no:3","nomask",-0.5,"nonvisual",-0.5,"no","no","no",-0.5,1.5,0.113599459159594,1.3,0.428578156008041,-1.1,0.827013384903111,0.470588235294118,2.6,"yes",NA,0,1
"MWPF202",0,59,"strawberry","Does it eat?","strawberry:nonvisual:no:4","mask",0.5,"nonvisual",-0.5,"no","","no",-0.5,1.75,0.502530555621672,0.25,-1.17730345186465,-2,-1.20122384464089,0.125,2,"yes",NA,0,1
"MWPF202",0,60,"apple","Does it have pockets?","apple:visual:no:2","mask",0.5,"visual",0.5,"no","no","no",-0.5,1,-0.664262733764561,0.714285714285714,-0.467219747703257,-2,-1.20122384464089,0.235294117647059,1.2,"yes",NA,0,1
"MWPF202",0,61,"pig","Is it eaten as bacon?","pig:nonvisual:yes:3","nomask",-0.5,"nonvisual",-0.5,"yes","yes","yes",0.5,1.2,-0.353117856594899,2.2,1.80504810561321,-2,-1.20122384464089,0.578947368421053,3.57142857142857,"yes",462.209166959,1,0
"MWPF202",0,62,"giraffe","Does it have spots?","giraffe:visual:yes:1","mask",0.5,"visual",0.5,"yes","yes","yes",0.5,2.85714285714286,2.22493969709659,1.85714285714286,1.28067860100171,-1.57142857142857,-0.235396592477078,0.5,2,"yes",919.519668212,1,0
"MWPF202",0,63,"table","Is it furniture?","table:nonvisual:yes:4","nomask",-0.5,"nonvisual",-0.5,"yes","yes","yes",0.5,1,-0.664262733764561,0.5,-0.794950688085439,-1.5,-0.0744253837831102,0.6,2.42857142857143,"yes",100.981163327,1,0
"MWPF202",1,64,"penguin","Does it have a beak?","penguin:visual:yes:2","nomask",-0.5,"visual",0.5,"yes","yes","yes",0.5,2,0.89146165208375,0.6,-0.642009582573754,-1.2,0.601653692731556,0.5,2.75,"yes",167.839258676,1,0
"MWPF202",1,65,"bottle","Is it used for holding beer?","bottle:nonvisual:yes:5","nomask",-0.5,"nonvisual",-0.5,"yes","yes","yes",0.5,2,0.89146165208375,1,-0.0302451605270142,-1.25,0.488973846645778,0.357142857142857,1.66666666666667,"yes",198.098915862,1,0
"MWPF202",1,66,"mouse","Does it have a tail?","mouse:visual:yes:1","mask",0.5,"visual",0.5,"yes","yes","yes",0.5,1.6,0.269171897744426,0.2,-1.25377400462049,-1.8,-0.750504460297776,0.470588235294118,1.25,"yes",567.098847823,1,0
"MWPF202",1,67,"table","Is it healthy?","table:nonvisual:no:3","mask",0.5,"nonvisual",-0.5,"no","no","no",-0.5,1.4,-0.041972979425237,0.4,-0.947891793597124,-1.8,-0.750504460297776,0.6,4,"no",492.924292339,1,0
"MWPF202",1,68,"rabbit","Is it hunted by people?","rabbit:nonvisual:yes:4","nomask",-0.5,"nonvisual",-0.5,"yes","","yes",0.5,1.5,0.113599459159594,1,-0.0302451605270142,-0.75,1.61577230750355,0.666666666666667,3.33333333333333,"no",NA,0,1
"MWPF202",1,69,"giraffe","Does it have long legs?","giraffe:visual:yes:3","nomask",-0.5,"visual",0.5,"yes","yes","yes",0.5,2,0.89146165208375,1.75,1.11681313081062,-1.75,-0.637824614211998,0.5,1.4,"yes",184.279016452,1,0
"MWPF202",1,70,"alligator","Does it have jaws?","alligator:visual:yes:5","mask",0.5,"visual",0.5,"yes","yes","yes",0.5,1.66666666666667,0.37288685680098,1.33333333333333,0.479558524511936,-1.33333333333333,0.301174103169482,0.571428571428571,2.66666666666667,"yes",412.364381831,1,0
"MWPF202",1,71,"strawberry","Does it have green leaves?","strawberry:visual:yes:3","mask",0.5,"visual",0.5,"yes","yes","yes",0.5,2,0.89146165208375,0,-1.55965621564386,-1.66666666666667,-0.450024870735702,0.125,2,"yes",269.722556928,1,0
"MWPF202",1,72,"pig","Does it live on farms?","pig:nonvisual:yes:2","nomask",-0.5,"nonvisual",-0.5,"yes","yes","yes",0.5,1.16666666666667,-0.404975336123176,0.833333333333333,-0.285147003046489,-1.66666666666667,-0.450024870735702,0.578947368421053,1.5,"yes",693.806990748,1,0
"MWPF202",1,73,"chair","Is it furniture?","chair:nonvisual:yes:2","mask",0.5,"nonvisual",-0.5,"yes","yes","yes",0.5,0.6,-1.28655248810389,0.4,-0.947891793597124,-1.8,-0.750504460297776,0.466666666666667,2,"yes",295.847429195,1,0
"MWPF202",1,74,"apple","Is it round?","apple:visual:yes:4","nomask",-0.5,"visual",0.5,"yes","yes","yes",0.5,3,2.44718603793206,1.5,0.734460367031411,-1.5,-0.0744253837831102,0.235294117647059,1.2,"yes",525.247491198,1,0
"MWPF202",1,75,"pineapple","Does it grow in Hawaii?","pineapple:nonvisual:yes:4","mask",0.5,"nonvisual",-0.5,"yes","yes","yes",0.5,1.5,0.113599459159594,1.16666666666667,0.224656681992461,-1.66666666666667,-0.450024870735702,0.3125,3,"yes",240.721854614,1,0
"MWPF202",1,76,"alligator","Does it live in water?","alligator:nonvisual:yes:4","nomask",-0.5,"nonvisual",-0.5,"yes","yes","yes",0.5,2.33333333333333,1.41003644736652,2.16666666666667,1.75406773710931,-1.16666666666667,0.676773590122074,0.571428571428571,2.5,"yes",540.098977974,1,0
"MWPF202",1,77,"apple","Is it a fruit?","apple:nonvisual:yes:1","nomask",-0.5,"nonvisual",-0.5,"yes","yes","yes",0.5,1.14285714285714,-0.442016392929088,1,-0.0302451605270142,-1.85714285714286,-0.879281427252951,0.235294117647059,3.6,"yes",1224.79990777,1,0
"MWPF202",1,78,"zebra","Does it have antennae?","zebra:visual:no:2","mask",0.5,"visual",0.5,"no","no","no",-0.5,0,-2.21998711961287,0,-1.55965621564386,-2,-1.20122384464089,0.538461538461538,1.33333333333333,"no",1108.15753601,1,0
"MWPF202",1,79,"camel","Is it brown?","camel:visual:yes:2","nomask",-0.5,"visual",0.5,"yes","","yes",0.5,1.5,0.113599459159594,1.5,0.734460367031411,-1.25,0.488973846645778,0.461538461538462,2.5,"yes",554.813677911,1,0
"MWPF202",1,80,"apple","Is it used for cider?","apple:nonvisual:yes:5","nomask",-0.5,"nonvisual",-0.5,"yes","yes","yes",0.5,0.6,-1.28655248810389,0.6,-0.642009582573754,-1.8,-0.750504460297776,0.235294117647059,2.25,"yes",174.887279049,1,0
"MWPF202",1,81,"bottle","Does it have teeth?","bottle:visual:no:5","mask",0.5,"visual",0.5,"no","no","no",-0.5,1,-0.664262733764561,1.66666666666667,0.989362209550886,-2,-1.20122384464089,0.357142857142857,2.2,"no",451.911627315,1,0
"MWPF202",1,82,"alligator","Is it a mammal?","alligator:nonvisual:no:1","mask",0.5,"nonvisual",-0.5,"no","no","no",-0.5,2,0.89146165208375,1.66666666666667,0.989362209550886,-1.16666666666667,0.676773590122074,0.571428571428571,2.75,"no",464.279676322,1,0
"MWPF202",1,83,"pineapple","Does it have a core?","pineapple:visual:yes:5","mask",0.5,"visual",0.5,"yes","yes","yes",0.5,1.5,0.113599459159594,2,1.49916589458984,0,3.30596999879022,0.3125,1.8,"yes",217.002675403,1,0
"MWPF202",1,84,"table","Is it flat?","table:visual:yes:4","mask",0.5,"visual",0.5,"yes","yes","yes",0.5,2.14285714285714,1.11370799291922,1.71428571428571,1.06219130741359,-1.28571428571429,0.408488242298794,0.6,1,"yes",406.19575954,1,0
"MWPF202",1,85,"mouse","Is it a rodent?","mouse:nonvisual:yes:1","mask",0.5,"nonvisual",-0.5,"yes","yes","yes",0.5,1.14285714285714,-0.442016392929088,1.14285714285714,0.188242133061107,-1.85714285714286,-0.879281427252951,0.470588235294118,4,"yes",390.356691554,1,0
"MWPF202",1,86,"zebra","Does it have a mane?","zebra:visual:yes:4","mask",0.5,"visual",0.5,"yes","yes","yes",0.5,1.5,0.113599459159594,1.5,0.734460367031411,-0.5,2.17917153793244,0.538461538461538,2.75,"no",NA,0,1
"MWPF202",1,87,"lion","Does it have wings?","lion:visual:no:3","nomask",-0.5,"visual",0.5,"no","no","no",-0.5,1.33333333333333,-0.145687938481791,0,-1.55965621564386,-1.66666666666667,-0.450024870735702,0.461538461538462,2.6,"no",1115.44832611,1,0
"MWPF202",1,88,"mouse","Is it a fruit?","mouse:nonvisual:no:1","mask",0.5,"nonvisual",-0.5,"no","no","no",-0.5,1,-0.664262733764561,0.25,-1.17730345186465,-2,-1.20122384464089,0.470588235294118,3,"no",257.574907504,1,0
"MWPF202",1,89,"penguin","Does it lay eggs?","penguin:nonvisual:yes:4","mask",0.5,"nonvisual",-0.5,"yes","yes","yes",0.5,1.4,-0.041972979425237,1.8,1.19328368356647,-1,1.05237307707467,0.5,2,"yes",639.594919514,1,0
"MWPF202",1,90,"chicken","Does it live in a coop?","chicken:nonvisual:yes:5","nomask",-0.5,"nonvisual",-0.5,"yes","yes","yes",0.5,1.4,-0.041972979425237,0.6,-0.642009582573754,-1.6,-0.299785075954666,0.555555555555556,2.8,"yes",250.927346991,1,0
"MWPF202",1,91,"zebra","Is it an animal?","zebra:nonvisual:yes:1","nomask",-0.5,"nonvisual",-0.5,"yes","yes","yes",0.5,1.44444444444444,0.0271703266124658,1.22222222222222,0.309623962832286,-1.88888888888889,-0.950824186672492,0.538461538461538,3.33333333333333,"yes",516.868271865,1,0
"MWPF202",1,92,"camel","Does it drink water?","camel:nonvisual:yes:2","mask",0.5,"nonvisual",-0.5,"yes","yes","yes",0.5,0.5,-1.44212492668872,0.666666666666667,-0.540048845565964,-1.83333333333333,-0.825624357688294,0.461538461538462,2.33333333333333,"yes",315.291736042,1,0
"MWPF202",1,93,"penguin","Does it have a tail?","penguin:visual:no:2","mask",0.5,"visual",0.5,"no","","no",-0.5,2.5,1.66932384500791,2,1.49916589458984,-0.333333333333333,2.55477102488503,0.5,4,"no",811.964655295,1,0
"MWPF202",1,94,"pig","Does it have a snout?","pig:visual:yes:3","nomask",-0.5,"visual",0.5,"yes","yes","yes",0.5,2.75,2.05825494146998,1.25,0.352107603252198,-1.75,-0.637824614211998,0.578947368421053,1.4,"yes",176.643874962,1,0
"MWPF202",1,95,"camel","Is it large?","camel:visual:yes:4","mask",0.5,"visual",0.5,"yes","yes","yes",0.5,1.75,0.502530555621672,0.5,-0.794950688085439,-1.75,-0.637824614211998,0.461538461538462,1.25,"yes",335.04812303,1,0
"MWPF202",1,96,"strawberry","Is it a fruit?","strawberry:nonvisual:yes:1","mask",0.5,"nonvisual",-0.5,"yes","yes","yes",0.5,1,-0.664262733764561,3,3.02857694970669,-1.5,-0.0744253837831102,0.125,3.33333333333333,"yes",864.724876359,1,0
"MWPF202",1,97,"penguin","Does it have feet?","penguin:visual:yes:3","mask",0.5,"visual",0.5,"yes","yes","yes",0.5,2.25,1.28039274854583,1.75,1.11681313081062,-1.75,-0.637824614211998,0.5,1.33333333333333,"yes",809.900013497,1,0
"MWPF202",1,98,"swan","Does it have a tail?","swan:visual:no:2","mask",0.5,"visual",0.5,"no","no","no",-0.5,3.16666666666667,2.70647343557345,1.83333333333333,1.24426405207036,-0.5,2.17917153793244,0.533333333333333,1.75,"yes",NA,0,1
"MWPF202",1,99,"penguin","Does it waddle?","penguin:nonvisual:yes:5","nomask",-0.5,"nonvisual",-0.5,"yes","yes","yes",0.5,1.75,0.502530555621672,0,-1.55965621564386,-1.5,-0.0744253837831102,0.5,1.55555555555556,"yes",478.179887868,1,0
"MWPF202",1,100,"pineapple","Is it tropical?","pineapple:nonvisual:yes:2","mask",0.5,"nonvisual",-0.5,"yes","yes","yes",0.5,1.33333333333333,-0.145687938481791,1.66666666666667,0.989362209550886,-1.66666666666667,-0.450024870735702,0.3125,2.5,"yes",374.614438275,1,0
"MWPF202",1,101,"apple","Does it have seeds?","apple:visual:yes:3","nomask",-0.5,"visual",0.5,"yes","yes","yes",0.5,1,-0.664262733764561,1.5,0.734460367031411,-1.66666666666667,-0.450024870735702,0.235294117647059,2,"yes",179.672261002,1,0
"MWPF202",1,102,"lion","Does it roar?","lion:nonvisual:yes:5","mask",0.5,"nonvisual",-0.5,"yes","yes","yes",0.5,2,0.89146165208375,2,1.49916589458984,-2,-1.20122384464089,0.461538461538462,4,"yes",267.347301822,1,0
"MWPF202",1,103,"camel","Does it have legs?","camel:visual:yes:3","nomask",-0.5,"visual",0.5,"yes","yes","yes",0.5,0.666666666666667,-1.18283752904733,1.83333333333333,1.24426405207036,-1.83333333333333,-0.825624357688294,0.461538461538462,1.16666666666667,"yes",489.930011099,1,0
"MWPF202",1,104,"strawberry","Does it have a tail?","strawberry:visual:no:2","nomask",-0.5,"visual",0.5,"no","no","no",-0.5,2.75,2.05825494146998,0.75,-0.412597924306227,-1.5,-0.0744253837831102,0.125,2,"no",281.353129074,1,0
"MWPF202",1,105,"giraffe","Does it live in Africa?","giraffe:nonvisual:yes:2","mask",0.5,"nonvisual",-0.5,"yes","yes","yes",0.5,2,0.89146165208375,1.83333333333333,1.24426405207036,-1.16666666666667,0.676773590122074,0.5,3.25,"yes",623.417000985,1,0
"MWPF202",1,106,"chicken","Is it a mammal?","chicken:nonvisual:no:2","nomask",-0.5,"nonvisual",-0.5,"no","no","no",-0.5,1.14285714285714,-0.442016392929088,2.14285714285714,1.71765318817796,-1.57142857142857,-0.235396592477078,0.555555555555556,1.33333333333333,"yes",NA,0,1
"MWPF202",1,107,"pineapple","Is it yellow inside?","pineapple:visual:yes:4","nomask",-0.5,"visual",0.5,"yes","yes","yes",0.5,1.75,0.502530555621672,0,-1.55965621564386,-1.75,-0.637824614211998,0.3125,1.66666666666667,"yes",204.436229775,1,0
"MWPF202",1,108,"swan","Does it have feathers?","swan:visual:yes:3","nomask",-0.5,"visual",0.5,"yes","yes","yes",0.5,1,-0.664262733764561,0.333333333333333,-1.04985253060491,-1.83333333333333,-0.825624357688294,0.533333333333333,2.6,"yes",373.865592759,1,0
"MWPF202",1,109,"apple","Is it green?","apple:visual:yes:2","nomask",-0.5,"visual",0.5,"yes","","yes",0.5,2.33333333333333,1.41003644736652,1,-0.0302451605270142,-1,1.05237307707467,0.235294117647059,2.33333333333333,"yes",460.786654381,1,0
"MWPF202",1,110,"pig","Does it like mud?","pig:nonvisual:yes:5","nomask",-0.5,"nonvisual",-0.5,"yes","yes","yes",0.5,2.66666666666667,1.92861124264929,1.66666666666667,0.989362209550886,-1.66666666666667,-0.450024870735702,0.578947368421053,2.5,"yes",894.582606852,1,0
"MWPF202",1,111,"table","Is it found in kitchens?","table:nonvisual:yes:2","mask",0.5,"nonvisual",-0.5,"yes","yes","yes",0.5,1.5,0.113599459159594,0.25,-1.17730345186465,-1.5,-0.0744253837831102,0.6,1.66666666666667,"yes",549.941049423,1,0
"MWPF202",1,112,"pineapple","Is it yellow?","pineapple:visual:yes:1","nomask",-0.5,"visual",0.5,"yes","","yes",0.5,2,0.89146165208375,0,-1.55965621564386,-1.33333333333333,0.301174103169482,0.3125,1,"yes",148.34361081,1,0
"MWPF202",1,113,"giraffe","Is it brown?","giraffe:visual:yes:4","mask",0.5,"visual",0.5,"yes","yes","yes",0.5,3.42857142857143,3.11392506043848,3,3.02857694970669,-0.428571428571429,2.34014274662641,0.5,1,"yes",748.425022932,1,0
"MWPF202",1,114,"bottle","Does it have a lid?","bottle:visual:yes:3","mask",0.5,"visual",0.5,"yes","","yes",0.5,2.5,1.66932384500791,0.25,-1.17730345186465,-1.5,-0.0744253837831102,0.357142857142857,1.71428571428571,"yes",291.485643713,1,0
"MWPF202",1,115,"lion","Does it have a tail?","lion:visual:yes:3","nomask",-0.5,"visual",0.5,"yes","yes","yes",0.5,1.5,0.113599459159594,1,-0.0302451605270142,-2,-1.20122384464089,0.461538461538462,1,"yes",450.502683641,1,0
"MWPF202",1,116,"chicken","Does it have legs?","chicken:visual:yes:4","mask",0.5,"visual",0.5,"yes","yes","yes",0.5,1.14285714285714,-0.442016392929088,0.428571428571429,-0.9041943348795,-2,-1.20122384464089,0.555555555555556,1.16666666666667,"yes",556.667821715,1,0
"MWPF202",1,117,"table","Does it have legs?","table:visual:yes:3","mask",0.5,"visual",0.5,"yes","yes","yes",0.5,1.25,-0.275331637302484,1.5,0.734460367031411,-0.75,1.61577230750355,0.6,1.75,"yes",321.088502649,1,0
"MWPF202",1,118,"swan","Is it a bird?","swan:nonvisual:yes:2","mask",0.5,"nonvisual",-0.5,"yes","yes","yes",0.5,1.75,0.502530555621672,1,-0.0302451605270142,-1.25,0.488973846645778,0.533333333333333,1.6,"yes",279.266850324,1,0
"MWPF202",1,119,"giraffe","Is it a mammal?","giraffe:nonvisual:yes:4","nomask",-0.5,"nonvisual",-0.5,"yes","yes","yes",0.5,1.33333333333333,-0.145687938481791,1.66666666666667,0.989362209550886,-0.333333333333333,2.55477102488503,0.5,2,"yes",482.070802944,1,0
"MWPF202",1,120,"alligator","Does it have scales?","alligator:visual:yes:3","nomask",-0.5,"visual",0.5,"yes","yes","yes",0.5,0.8,-0.975407610934224,2.2,1.80504810561321,-1.6,-0.299785075954666,0.571428571428571,2,"yes",604.486837285,1,0
"MWPF202",1,121,"chair","Is it made of wood?","chair:visual:yes:2","nomask",-0.5,"visual",0.5,"yes","yes","yes",0.5,2.16666666666667,1.15074904972513,0.5,-0.794950688085439,-1.33333333333333,0.301174103169482,0.466666666666667,1.83333333333333,"yes",211.752690375,1,0
"MWPF202",1,122,"chicken","Does it live on a farm?","chicken:nonvisual:yes:2","mask",0.5,"nonvisual",-0.5,"yes","yes","yes",0.5,1.2,-0.353117856594899,0.8,-0.336127371550384,-1.2,0.601653692731556,0.555555555555556,2.16666666666667,"yes",359.468840761,1,0
"MWPF202",1,123,"strawberry","Does it have a mane?","strawberry:visual:no:3","nomask",-0.5,"visual",0.5,"no","no","no",-0.5,0.285714285714286,-1.77549443794193,0,-1.55965621564386,-1.85714285714286,-0.879281427252951,0.125,1,"no",292.520165211,1,0
"MWPF202",1,124,"chair","Does it have armrests?","chair:visual:yes:3","mask",0.5,"visual",0.5,"yes","yes","yes",0.5,1.5,0.113599459159594,0.5,-0.794950688085439,-1.75,-0.637824614211998,0.466666666666667,4.25,"yes",1051.57094309,1,0
"MWPF202",1,125,"rabbit","Does it make noises?","rabbit:nonvisual:no:2","mask",0.5,"nonvisual",-0.5,"no","yes","yes",0.5,1,-0.664262733764561,1.83333333333333,1.24426405207036,-0.833333333333333,1.42797256402726,0.666666666666667,1.4,"no",930.662500672,1,0
"MWPF202",1,126,"mouse","Is it hunted by people?","mouse:nonvisual:no:5","nomask",-0.5,"nonvisual",-0.5,"no","","no",-0.5,1,-0.664262733764561,1,-0.0302451605270142,-1.2,0.601653692731556,0.470588235294118,1.5,"yes",NA,0,1
"MWPF202",1,127,"rabbit","Does it hop?","rabbit:nonvisual:yes:1","nomask",-0.5,"nonvisual",-0.5,"yes","yes","yes",0.5,2,0.89146165208375,1,-0.0302451605270142,-1.8,-0.750504460297776,0.666666666666667,1.66666666666667,"yes",285.822363803,1,0
"MWPF202",2,128,"alligator","Is it used for freight?","alligator:nonvisual:no:3","mask",0.5,"nonvisual",-0.5,"no","no","no",-0.5,1.2,-0.353117856594899,2,1.49916589458984,-1.2,0.601653692731556,0.571428571428571,3.75,"no",138.067707885,1,0
"MWPF202",2,129,"pineapple","Does it have a tail?","pineapple:visual:no:5","nomask",-0.5,"visual",0.5,"no","no","no",-0.5,1.25,-0.275331637302484,0.25,-1.17730345186465,-2,-1.20122384464089,0.3125,1.66666666666667,"no",275.029750308,1,0
"MWPF202",2,130,"mouse","Is it grey?","mouse:visual:yes:2","mask",0.5,"visual",0.5,"yes","yes","yes",0.5,2,0.89146165208375,1.75,1.11681313081062,-1.375,0.207274231431334,0.470588235294118,1.6,"yes",499.791152077,1,0
"MWPF202",2,131,"alligator","Is it long?","alligator:visual:yes:2","nomask",-0.5,"visual",0.5,"yes","yes","yes",0.5,2.25,1.28039274854583,1.5,0.734460367031411,-1.75,-0.637824614211998,0.571428571428571,3.33333333333333,"yes",443.197224522,1,0
"MWPF202",2,132,"bottle","Is it a container?","bottle:nonvisual:yes:3","nomask",-0.5,"nonvisual",-0.5,"yes","yes","yes",0.5,2,0.89146165208375,1.66666666666667,0.989362209550886,-0.833333333333333,1.42797256402726,0.357142857142857,1.33333333333333,"yes",585.940998048,1,0
"MWPF202",2,133,"chicken","Does it have a beak?","chicken:visual:yes:3","mask",0.5,"visual",0.5,"yes","yes","yes",0.5,1.4,-0.041972979425237,1.6,0.887401472543096,-1.2,0.601653692731556,0.555555555555556,1.25,"yes",738.614856265,1,0
"MWPF202",2,134,"pineapple","Is it a carnivore?","pineapple:nonvisual:no:3","nomask",-0.5,"nonvisual",-0.5,"no","no","no",-0.5,1.25,-0.275331637302484,0.25,-1.17730345186465,-1.75,-0.637824614211998,0.3125,3,"no",245.644357288,1,0
"MWPF202",2,135,"zebra","Is it eaten by rabbits?","zebra:nonvisual:no:3","nomask",-0.5,"nonvisual",-0.5,"no","no","no",-0.5,1.33333333333333,-0.145687938481791,1.33333333333333,0.479558524511936,-2,-1.20122384464089,0.538461538461538,2.25,"no",523.689658381,1,0
"MWPF202",2,136,"giraffe","Is it muddy?","giraffe:visual:no:3","mask",0.5,"visual",0.5,"no","no","no",-0.5,2,0.89146165208375,0.666666666666667,-0.540048845565964,-1,1.05237307707467,0.5,2,"yes",NA,0,1
"MWPF202",2,137,"chair","Is it comfortable?","chair:nonvisual:yes:3","nomask",-0.5,"nonvisual",-0.5,"yes","","yes",0.5,1.25,-0.275331637302484,0,-1.55965621564386,-1.75,-0.637824614211998,0.466666666666667,1.71428571428571,"yes",792.22000367,1,0
"MWPF202",2,138,"apple","Is it timid?","apple:nonvisual:no:4","mask",0.5,"nonvisual",-0.5,"no","no","no",-0.5,2.57142857142857,1.78044701542564,2.14285714285714,1.71765318817796,-1.57142857142857,-0.235396592477078,0.235294117647059,3.33333333333333,"no",522.113122512,1,0
"MWPF202",2,139,"pineapple","Does it have an inside?","pineapple:visual:yes:2","mask",0.5,"visual",0.5,"yes","","yes",0.5,1,-0.664262733764561,0.75,-0.412597924306227,-1.5,-0.0744253837831102,0.3125,1,"yes",1390.58809285,1,0
"MWPF202",2,140,"pig","Does it have a tail?","pig:visual:yes:2","nomask",-0.5,"visual",0.5,"yes","yes","yes",0.5,2.66666666666667,1.92861124264929,0.333333333333333,-1.04985253060491,-1.16666666666667,0.676773590122074,0.578947368421053,1.42857142857143,"yes",1173.46623307,1,0
"MWPF202",2,141,"mouse","Does it have gears?","mouse:visual:no:1","mask",0.5,"visual",0.5,"no","no","no",-0.5,1,-0.664262733764561,0.333333333333333,-1.04985253060491,-2,-1.20122384464089,0.470588235294118,2.4,"no",160.531966249,1,0
"MWPF202",2,142,"penguin","Is it unable to fly?","penguin:nonvisual:yes:2","nomask",-0.5,"nonvisual",-0.5,"yes","yes","yes",0.5,1.83333333333333,0.632174254442365,2.33333333333333,2.00896957962879,-1.5,-0.0744253837831102,0.5,3.75,"yes",1110.58633286,1,0
"MWPF202",2,143,"strawberry","Is it red?","strawberry:visual:yes:1","mask",0.5,"visual",0.5,"yes","yes","yes",0.5,1.66666666666667,0.37288685680098,0,-1.55965621564386,-1.33333333333333,0.301174103169482,0.125,1,"yes",94.7087591048,1,0
"MWPF202",2,144,"chicken","Does it lay eggs?","chicken:nonvisual:yes:1","mask",0.5,"nonvisual",-0.5,"yes","yes","yes",0.5,2.83333333333333,2.18789864029068,2.5,2.26387142214826,-1.33333333333333,0.301174103169482,0.555555555555556,2.16666666666667,"yes",285.004941514,1,0
"MWPF202",2,145,"alligator","Does it have a tail?","alligator:visual:yes:4","nomask",-0.5,"visual",0.5,"yes","yes","yes",0.5,1.16666666666667,-0.404975336123176,0.5,-0.794950688085439,-1.83333333333333,-0.825624357688294,0.571428571428571,1,"yes",205.813268898,1,0
"MWPF202",2,146,"pig","Is it muddy?","pig:visual:yes:5","nomask",-0.5,"visual",0.5,"yes","yes","yes",0.5,1.5,0.113599459159594,1.33333333333333,0.479558524511936,-1.16666666666667,0.676773590122074,0.578947368421053,2.14285714285714,"no",NA,0,1
"MWPF202",2,147,"apple","Is it eaten in pies?","apple:nonvisual:yes:3","nomask",-0.5,"nonvisual",-0.5,"yes","yes","yes",0.5,2.33333333333333,1.41003644736652,1.83333333333333,1.24426405207036,-1.5,-0.0744253837831102,0.235294117647059,1.5,"yes",373.197793029,1,0
"MWPF202",2,148,"swan","Does it have a long neck?","swan:visual:yes:1","nomask",-0.5,"visual",0.5,"yes","yes","yes",0.5,2,0.89146165208375,1.5,0.734460367031411,-2,-1.20122384464089,0.533333333333333,2.6,"yes",487.347925082,1,0
"MWPF202",2,149,"strawberry","Does it taste good?","strawberry:nonvisual:yes:4","nomask",-0.5,"nonvisual",-0.5,"yes","yes","yes",0.5,2.33333333333333,1.41003644736652,2.16666666666667,1.75406773710931,-1.16666666666667,0.676773590122074,0.125,1,"yes",406.796082854,1,0
"MWPF202",2,150,"camel","Is it beige?","camel:visual:yes:5","mask",0.5,"visual",0.5,"yes","yes","yes",0.5,1.8,0.580316774914088,0.6,-0.642009582573754,-0.8,1.50309246141778,0.461538461538462,1.9,"yes",781.816481613,1,0
"MWPF202",2,151,"table","Does it have a neck?","table:visual:no:1","mask",0.5,"visual",0.5,"no","no","no",-0.5,0.6,-1.28655248810389,0.6,-0.642009582573754,-1.4,0.150934308388445,0.6,2.8,"yes",NA,0,1
"MWPF202",2,152,"zebra","Does it live in Africa?","zebra:nonvisual:yes:3","nomask",-0.5,"nonvisual",-0.5,"yes","yes","yes",0.5,1.33333333333333,-0.145687938481791,1.83333333333333,1.24426405207036,-0.666666666666667,1.80357205097985,0.538461538461538,2.88888888888889,"yes",754.252593964,1,0
"MWPF202",2,153,"bottle","Is it breakable?","bottle:nonvisual:yes:4","mask",0.5,"nonvisual",-0.5,"yes","yes","yes",0.5,2,0.89146165208375,1,-0.0302451605270142,-1,1.05237307707467,0.357142857142857,2.8,"no",NA,0,1
"MWPF202",2,154,"penguin","Is it a bird?","penguin:nonvisual:yes:1","nomask",-0.5,"nonvisual",-0.5,"yes","yes","yes",0.5,1.5,0.113599459159594,2,1.49916589458984,-1.5,-0.0744253837831102,0.5,1,"yes",380.962753901,1,0
"MWPF202",2,155,"camel","Is it graceful?","camel:nonvisual:no:2","nomask",-0.5,"nonvisual",-0.5,"no","no","no",-0.5,2,0.89146165208375,1,-0.0302451605270142,-1,1.05237307707467,0.461538461538462,2.33333333333333,"no",1103.69673604,1,0
"MWPF202",2,156,"penguin","Is it long?","penguin:visual:no:4","mask",0.5,"visual",0.5,"no","","no",-0.5,1,-0.664262733764561,1.5,0.734460367031411,-1.5,-0.0744253837831102,0.5,2.6,"no",1176.69521598,1,0
"MWPF202",2,157,"rabbit","Does it have ears?","rabbit:visual:yes:1","mask",0.5,"visual",0.5,"yes","yes","yes",0.5,2,0.89146165208375,0.5,-0.794950688085439,-1.75,-0.637824614211998,0.666666666666667,1.25,"yes",721.839548321,1,0
"MWPF202",2,158,"pig","Does it have wings?","pig:visual:no:2","nomask",-0.5,"visual",0.5,"no","no","no",-0.5,1.5,0.113599459159594,0.5,-0.794950688085439,-2,-1.20122384464089,0.578947368421053,1.66666666666667,"no",808.847522829,1,0
"MWPF202",2,159,"table","Is it found in dining rooms?","table:nonvisual:yes:3","mask",0.5,"nonvisual",-0.5,"yes","yes","yes",0.5,1.57142857142857,0.224722629577331,0.285714285714286,-1.12268162846762,-1.85714285714286,-0.879281427252951,0.6,2.25,"yes",206.185857998,1,0
"MWPF202",2,160,"camel","Does it have a hump?","camel:visual:yes:1","nomask",-0.5,"visual",0.5,"yes","yes","yes",0.5,1.6,0.269171897744426,1,-0.0302451605270142,-2,-1.20122384464089,0.461538461538462,NA,"yes",399.219983257,1,0
"MWPF202",2,161,"penguin","Does it live in the Arctic?","penguin:nonvisual:yes:3","mask",0.5,"nonvisual",-0.5,"yes","","yes",0.5,1.57142857142857,0.224722629577331,2.28571428571429,1.93614048176608,-0.714285714285714,1.69625791185054,0.5,2,"yes",501.988547388,1,0
"MWPF202",2,162,"strawberry","Does it have seeds?","strawberry:visual:yes:2","mask",0.5,"visual",0.5,"yes","yes","yes",0.5,1,-0.664262733764561,0.857142857142857,-0.248732454115136,-1.57142857142857,-0.235396592477078,0.125,1.66666666666667,"yes",670.460767346,1,0
"MWPF202",2,163,"bottle","Is it made of plastic?","bottle:visual:yes:2","nomask",-0.5,"visual",0.5,"yes","yes","yes",0.5,2.4,1.51375140642307,0.8,-0.336127371550384,-1.2,0.601653692731556,0.357142857142857,1.8,"yes",752.809545025,1,0
"MWPF202",2,164,"swan","Does it have wings?","swan:visual:yes:4","nomask",-0.5,"visual",0.5,"yes","yes","yes",0.5,2,0.89146165208375,1.83333333333333,1.24426405207036,-1.33333333333333,0.301174103169482,0.533333333333333,1,"yes",678.219127003,1,0
"MWPF202",2,165,"giraffe","Is it tall?","giraffe:visual:yes:2","nomask",-0.5,"visual",0.5,"yes","yes","yes",0.5,2,0.89146165208375,1,-0.0302451605270142,-2,-1.20122384464089,0.5,2,"yes",166.958026821,1,0
"MWPF202",2,166,"strawberry","Is it small?","strawberry:visual:yes:4","nomask",-0.5,"visual",0.5,"yes","yes","yes",0.5,1.6,0.269171897744426,0.8,-0.336127371550384,-1.4,0.150934308388445,0.125,2.5,"yes",669.997598045,1,0
"MWPF202",2,167,"zebra","Does it travel in herds?","zebra:nonvisual:yes:4","mask",0.5,"nonvisual",-0.5,"yes","yes","yes",0.5,1.33333333333333,-0.145687938481791,2,1.49916589458984,-1,1.05237307707467,0.538461538461538,2.5,"yes",723.765203031,1,0
"MWPF202",2,168,"swan","Is it graceful?","swan:nonvisual:yes:1","mask",0.5,"nonvisual",-0.5,"yes","yes","yes",0.5,1.57142857142857,0.224722629577331,0.571428571428571,-0.685707041291378,-1.85714285714286,-0.879281427252951,0.533333333333333,1.71428571428571,"no",NA,0,1
"MWPF202",2,169,"chair","Does it have a seat?","chair:visual:yes:4","mask",0.5,"visual",0.5,"yes","yes","yes",0.5,1.55555555555556,0.200028591706723,0.666666666666667,-0.540048845565964,-1.88888888888889,-0.950824186672492,0.466666666666667,1.88888888888889,"yes",210.080073681,1,0
"MWPF202",2,170,"zebra","Does it have hooves?","zebra:visual:yes:3","mask",0.5,"visual",0.5,"yes","yes","yes",0.5,2,0.89146165208375,0.5,-0.794950688085439,-1,1.05237307707467,0.538461538461538,1.8,"yes",549.107124796,1,0
"MWPF202",2,171,"mouse","Is it used in experiments?","mouse:nonvisual:yes:4","nomask",-0.5,"nonvisual",-0.5,"yes","yes","yes",0.5,0.666666666666667,-1.18283752904733,2.66666666666667,2.51877326466773,-1.33333333333333,0.301174103169482,0.470588235294118,2.5,"no",NA,0,1
"MWPF202",2,172,"apple","Does it live in Africa?","apple:nonvisual:no:2","mask",0.5,"nonvisual",-0.5,"no","no","no",-0.5,0.2,-1.90884224244321,1,-0.0302451605270142,-1,1.05237307707467,0.235294117647059,3,"no",262.080447748,1,0
"MWPF202",2,173,"pineapple","Is it an animal?","pineapple:nonvisual:no:1","mask",0.5,"nonvisual",-0.5,"no","no","no",-0.5,1.33333333333333,-0.145687938481791,0.333333333333333,-1.04985253060491,-1.83333333333333,-0.825624357688294,0.3125,2.66666666666667,"no",648.894243175,1,0
"MWPF202",2,174,"alligator","Is it an animal?","alligator:nonvisual:yes:1","nomask",-0.5,"nonvisual",-0.5,"yes","yes","yes",0.5,1.2,-0.353117856594899,0.6,-0.642009582573754,-2,-1.20122384464089,0.571428571428571,2.88888888888889,"yes",253.296001116,1,0
"MWPF202",2,175,"rabbit","Is it edible?","rabbit:nonvisual:yes:3","nomask",-0.5,"nonvisual",-0.5,"yes","yes","yes",0.5,0.2,-1.90884224244321,0.8,-0.336127371550384,-1.4,0.150934308388445,0.666666666666667,2.66666666666667,"no",NA,0,1
"MWPF202",2,176,"mouse","Does it eat?","mouse:nonvisual:yes:3","mask",0.5,"nonvisual",-0.5,"yes","yes","yes",0.5,1.33333333333333,-0.145687938481791,0.833333333333333,-0.285147003046489,-1.66666666666667,-0.450024870735702,0.470588235294118,2.33333333333333,"yes",478.952203412,1,0
"MWPF202",2,177,"pineapple","Does it have legs?","pineapple:visual:no:4","nomask",-0.5,"visual",0.5,"no","no","no",-0.5,0,-2.21998711961287,0,-1.55965621564386,-2,-1.20122384464089,0.3125,1.8,"no",591.867584037,1,0
"MWPF202",2,178,"penguin","Is it black?","penguin:visual:yes:1","mask",0.5,"visual",0.5,"yes","yes","yes",0.5,2,0.89146165208375,1.2,0.275637050496356,-1,1.05237307707467,0.5,1.8,"yes",590.478076367,1,0
"MWPF202",2,179,"lion","Does it have fur?","lion:visual:yes:2","nomask",-0.5,"visual",0.5,"yes","yes","yes",0.5,1.28571428571429,-0.219770052093615,0.571428571428571,-0.685707041291378,-1.57142857142857,-0.235396592477078,0.461538461538462,1.71428571428571,"yes",711.86765749,1,0
"MWPF202",2,180,"rabbit","Does it have whiskers?","rabbit:visual:yes:3","nomask",-0.5,"visual",0.5,"yes","yes","yes",0.5,2.33333333333333,1.41003644736652,0.166666666666667,-1.30475437312439,-0.833333333333333,1.42797256402726,0.666666666666667,1.85714285714286,"yes",515.752338339,1,0
"MWPF202",2,181,"chair","Does it have a cushion?","chair:visual:yes:5","nomask",-0.5,"visual",0.5,"yes","","yes",0.5,2,0.89146165208375,0.75,-0.412597924306227,-1.25,0.488973846645778,0.466666666666667,2.16666666666667,"yes",970.306927571,1,0
"MWPF202",2,182,"lion","Does it have a mane?","lion:visual:yes:1","mask",0.5,"visual",0.5,"yes","yes","yes",0.5,0.8,-0.975407610934224,1.6,0.887401472543096,-1.6,-0.299785075954666,0.461538461538462,2.5,"yes",737.952190451,1,0
"MWPF202",2,183,"bottle","Is it juicy?","bottle:nonvisual:no:2","nomask",-0.5,"nonvisual",-0.5,"no","no","no",-0.5,1.25,-0.275331637302484,0.25,-1.17730345186465,-1.75,-0.637824614211998,0.357142857142857,3.2,"no",647.94993517,1,0
"MWPF202",2,184,"giraffe","Does it eat leaves?","giraffe:nonvisual:yes:1","mask",0.5,"nonvisual",-0.5,"yes","yes","yes",0.5,1.6,0.269171897744426,2.2,1.80504810561321,-1.2,0.601653692731556,0.5,1.75,"timeout",NA,NA,NA
"MWPF202",2,185,"apple","Is it nutritious?","apple:nonvisual:yes:4","mask",0.5,"nonvisual",-0.5,"yes","yes","yes",0.5,0.625,-1.24765937845768,2.25,1.88151865836905,-1.75,-0.637824614211998,0.235294117647059,2.9,"yes",671.576333931,1,0
"MWPF202",2,186,"lion","Does it have teeth?","lion:visual:yes:4","nomask",-0.5,"visual",0.5,"yes","yes","yes",0.5,1.125,-0.469797185533523,1.125,0.160931221362592,-2,-1.20122384464089,0.461538461538462,1,"yes",618.227525149,1,0
"MWPF202",2,187,"chicken","Does it have wings?","chicken:visual:yes:2","mask",0.5,"visual",0.5,"yes","yes","yes",0.5,1.25,-0.275331637302484,0,-1.55965621564386,-1.75,-0.637824614211998,0.555555555555556,1.5,"yes",866.793552414,1,0
"MWPF202",2,188,"chair","Is it used for relaxing?","chair:nonvisual:yes:4","nomask",-0.5,"nonvisual",-0.5,"yes","yes","yes",0.5,0.6,-1.28655248810389,0,-1.55965621564386,-2,-1.20122384464089,0.466666666666667,3.33333333333333,"yes",363.229569281,1,0
"MWPF202",2,189,"chicken","Does it eat grain?","chicken:nonvisual:yes:3","mask",0.5,"nonvisual",-0.5,"yes","yes","yes",0.5,1.25,-0.275331637302484,0.75,-0.412597924306227,-1,1.05237307707467,0.555555555555556,3,"yes",638.868077425,1,0
"MWPF202",2,190,"table","Is it an animal?","table:nonvisual:no:1","mask",0.5,"nonvisual",-0.5,"no","no","no",-0.5,0,-2.21998711961287,0,-1.55965621564386,-2,-1.20122384464089,0.6,3.33333333333333,"no",483.620934654,1,0
"MWPF202",2,191,"mouse","Does it have fur?","mouse:visual:yes:3","mask",0.5,"visual",0.5,"yes","yes","yes",0.5,2.57142857142857,1.78044701542564,2.14285714285714,1.71765318817796,-1.57142857142857,-0.235396592477078,0.470588235294118,1,"no",NA,0,1
"MWPF203",0,0,"apple","Is it used for cider?","apple:nonvisual:yes:5","mask",0.5,"nonvisual",-0.5,"yes","yes","yes",0.5,0.6,-1.28655248810389,0.6,-0.642009582573754,-1.8,-0.750504460297776,0.235294117647059,2.25,"yes",10.4644238017,1,0
"MWPF203",0,1,"pig","Does it have fur?","pig:visual:no:5","nomask",-0.5,"visual",0.5,"no","","no",-0.5,1.75,0.502530555621672,1.25,0.352107603252198,-1.5,-0.0744253837831102,0.578947368421053,1.8,"no",463.095995976,1,0
"MWPF203",0,2,"raccoon","Does it have a mask?","raccoon:visual:yes:5","nomask",-0.5,"visual",0.5,"yes","yes","yes",0.5,2.4,1.51375140642307,2.2,1.80504810561321,-1,1.05237307707467,0.545454545454545,2.71428571428571,"no",NA,0,1
"MWPF203",0,3,"dog","Is it eaten in pies?","dog:nonvisual:no:2","nomask",-0.5,"nonvisual",-0.5,"no","no","no",-0.5,0.857142857142857,-0.886509074600034,0.571428571428571,-0.685707041291378,-1.57142857142857,-0.235396592477078,0.642857142857143,3,"no",323.892398563,1,0
"MWPF203",0,4,"tiger","Does it live in India?","tiger:nonvisual:yes:5","mask",0.5,"nonvisual",-0.5,"yes","yes","yes",0.5,0.75,-1.05319383022664,1.5,0.734460367031411,-1,1.05237307707467,0.473684210526316,2,"yes",374.899886549,1,0
"MWPF203",0,5,"bottle","Does it have a neck?","bottle:visual:yes:4","mask",0.5,"visual",0.5,"yes","yes","yes",0.5,2.2,1.20260652925341,1.4,0.581519261519726,-1.4,0.150934308388445,0.357142857142857,1.88888888888889,"yes",307.391646435,1,0
"MWPF203",0,6,"penguin","Is it a bird?","penguin:nonvisual:yes:1","nomask",-0.5,"nonvisual",-0.5,"yes","yes","yes",0.5,1.5,0.113599459159594,2,1.49916589458984,-1.5,-0.0744253837831102,0.5,1,"no",NA,0,1
"MWPF203",0,7,"alligator","Does it eat people?","alligator:nonvisual:yes:5","nomask",-0.5,"nonvisual",-0.5,"yes","yes","yes",0.5,2.4,1.51375140642307,3,3.02857694970669,-1.2,0.601653692731556,0.571428571428571,4,"yes",259.108720667,1,0
"MWPF203",0,8,"penguin","Is it like a horse?","penguin:nonvisual:no:1","mask",0.5,"nonvisual",-0.5,"no","no","no",-0.5,1.75,0.502530555621672,0.75,-0.412597924306227,-2,-1.20122384464089,0.5,1.33333333333333,"no",196.144091489,1,0
"MWPF203",0,9,"chair","Does it have a tail?","chair:visual:no:5","mask",0.5,"visual",0.5,"no","no","no",-0.5,3.2,2.75833091510172,1.2,0.275637050496356,-1.8,-0.750504460297776,0.466666666666667,3,"yes",NA,0,1
"MWPF203",0,10,"alligator","Does it live in water?","alligator:nonvisual:yes:4","mask",0.5,"nonvisual",-0.5,"yes","yes","yes",0.5,2.33333333333333,1.41003644736652,2.16666666666667,1.75406773710931,-1.16666666666667,0.676773590122074,0.571428571428571,2.5,"yes",260.520256299,1,0
"MWPF203",0,11,"tiger","Is it brown?","tiger:visual:no:2","mask",0.5,"visual",0.5,"no","no","no",-0.5,2.28571428571429,1.3359543337547,1.71428571428571,1.06219130741359,-1.42857142857143,0.0865458249108578,0.473684210526316,1.5,"yes",NA,0,1
"MWPF203",0,12,"raccoon","Does it have a tail?","raccoon:visual:yes:2","mask",0.5,"visual",0.5,"yes","yes","yes",0.5,1.2,-0.353117856594899,0.4,-0.947891793597124,-1.8,-0.750504460297776,0.545454545454545,1.33333333333333,"yes",550.24476457,1,0
"MWPF203",0,13,"deer","Is it an herbivore?","deer:nonvisual:yes:4","nomask",-0.5,"nonvisual",-0.5,"yes","","yes",0.5,1,-0.664262733764561,1.75,1.11681313081062,-1,1.05237307707467,0.5625,3,"yes",178.809060511,1,0
"MWPF203",0,14,"camel","Is it beige?","camel:visual:yes:5","mask",0.5,"visual",0.5,"yes","yes","yes",0.5,1.8,0.580316774914088,0.6,-0.642009582573754,-0.8,1.50309246141778,0.461538461538462,1.9,"no",NA,0,1
"MWPF203",0,15,"swan","Does it have feathers?","swan:visual:yes:3","mask",0.5,"visual",0.5,"yes","yes","yes",0.5,1,-0.664262733764561,0.333333333333333,-1.04985253060491,-1.83333333333333,-0.825624357688294,0.533333333333333,2.6,"yes",185.171399382,1,0
"MWPF203",0,16,"table","Is it made of wood?","table:visual:yes:1","nomask",-0.5,"visual",0.5,"yes","yes","yes",0.5,2,0.89146165208375,2,1.49916589458984,-1,1.05237307707467,0.6,2.5,"yes",44.5944506209,1,0
"MWPF203",0,17,"mouse","Is it used for transportation?","mouse:nonvisual:no:2","nomask",-0.5,"nonvisual",-0.5,"no","no","no",-0.5,1.5,0.113599459159594,1,-0.0302451605270142,-1.5,-0.0744253837831102,0.470588235294118,1,"no",459.720054525,1,0
"MWPF203",0,18,"dog","Does it bark?","dog:nonvisual:yes:1","mask",0.5,"nonvisual",-0.5,"yes","yes","yes",0.5,1.41666666666667,-0.0160442396610982,1.33333333333333,0.479558524511936,-1.33333333333333,0.301174103169482,0.642857142857143,1,"yes",172.032470116,1,0
"MWPF203",0,19,"chair","Does it have legs?","chair:visual:yes:1","mask",0.5,"visual",0.5,"yes","yes","yes",0.5,1.7,0.424744336329256,0.8,-0.336127371550384,-1.5,-0.0744253837831102,0.466666666666667,1.5,"yes",458.184339688,1,0
"MWPF203",0,20,"camel","Is it graceful?","camel:nonvisual:no:2","nomask",-0.5,"nonvisual",-0.5,"no","no","no",-0.5,2,0.89146165208375,1,-0.0302451605270142,-1,1.05237307707467,0.461538461538462,2.33333333333333,"yes",NA,0,1
"MWPF203",0,21,"strawberry","Is it red?","strawberry:visual:yes:1","mask",0.5,"visual",0.5,"yes","yes","yes",0.5,1.66666666666667,0.37288685680098,0,-1.55965621564386,-1.33333333333333,0.301174103169482,0.125,1,"yes",145.606045844,1,0
"MWPF203",0,22,"raccoon","Does it have a long neck?","raccoon:visual:no:4","nomask",-0.5,"visual",0.5,"no","no","no",-0.5,2.2,1.20260652925341,1.4,0.581519261519726,-1,1.05237307707467,0.545454545454545,1.8,"no",416.290385532,1,0
"MWPF203",0,23,"pig","Does it have feathers?","pig:visual:no:4","nomask",-0.5,"visual",0.5,"no","no","no",-0.5,0.5,-1.44212492668872,1.25,0.352107603252198,-2,-1.20122384464089,0.578947368421053,1.5,"no",502.046229318,1,0
"MWPF203",0,24,"camel","Does it spit?","camel:nonvisual:yes:5","nomask",-0.5,"nonvisual",-0.5,"yes","yes","yes",0.5,1.83333333333333,0.632174254442365,2.5,2.26387142214826,-1.5,-0.0744253837831102,0.461538461538462,2.33333333333333,"yes",234.360159462,1,0
"MWPF203",0,25,"swan","Does it lay eggs?","swan:nonvisual:yes:4","nomask",-0.5,"nonvisual",-0.5,"yes","yes","yes",0.5,1.66666666666667,0.37288685680098,1.33333333333333,0.479558524511936,-1,1.05237307707467,0.533333333333333,1.33333333333333,"yes",606.109038956,1,0
"MWPF203",0,26,"alligator","Is it long?","alligator:visual:yes:2","mask",0.5,"visual",0.5,"yes","yes","yes",0.5,2.25,1.28039274854583,1.5,0.734460367031411,-1.75,-0.637824614211998,0.571428571428571,3.33333333333333,"yes",249.178877071,1,0
"MWPF203",0,27,"tiger","Does it have warts?","tiger:visual:no:5","mask",0.5,"visual",0.5,"no","no","no",-0.5,1.6,0.269171897744426,2.2,1.80504810561321,-1.2,0.601653692731556,0.473684210526316,4.25,"no",306.131243618,1,0
"MWPF203",0,28,"deer","Does it have large teeth?","deer:visual:no:5","nomask",-0.5,"visual",0.5,"no","","no",-0.5,1.85714285714286,0.669215311248277,1.57142857142857,0.843704013825471,-0.285714285714286,2.66208516401435,0.5625,3.16666666666667,"yes",NA,0,1
"MWPF203",0,29,"mouse","Does it have whiskers?","mouse:visual:yes:4","mask",0.5,"visual",0.5,"yes","","yes",0.5,1.33333333333333,-0.145687938481791,0.333333333333333,-1.04985253060491,-2,-1.20122384464089,0.470588235294118,2.5,"yes",118.365237024,1,0
